NoP PMMA 40mgmL
Wavelength (nm)	Intensity
191.457733	0.011020	
193.053986	0.007302	
194.650345	0.005126	
196.246765	0.004224	
197.843262	0.003683	
199.439835	0.003217	
201.036469	0.002553	
202.633194	0.002180	
204.229980	0.002335	
205.826859	0.002216	
207.423782	0.002084	
209.020782	0.002052	
210.617874	0.001915	
212.215012	0.001886	
213.812225	0.002185	
215.409500	0.001921	
217.006866	0.001991	
218.604279	0.001999	
220.201752	0.001927	
221.799316	0.001708	
223.396927	0.001721	
224.994598	0.001547	
226.592361	0.001668	
228.190155	0.001646	
229.788040	0.001631	
231.385986	0.001507	
232.983978	0.001495	
234.582062	0.001433	
236.180176	0.001360	
237.778351	0.001354	
239.376617	0.001308	
240.974899	0.001357	
242.573273	0.001341	
244.171677	0.001406	
245.770172	0.001655	
247.368698	0.001551	
248.967316	0.001690	
250.565964	0.001883	
252.164673	0.001858	
253.763428	0.002045	
255.362228	0.001948	
256.961121	0.002020	
258.560028	0.002099	
260.158997	0.002387	
261.758026	0.002338	
263.357117	0.002603	
264.956238	0.002588	
266.555450	0.002708	
268.154663	0.002932	
269.753967	0.003015	
271.353271	0.003115	
272.952667	0.003232	
274.552094	0.003518	
276.151550	0.003480	
277.751099	0.003593	
279.350647	0.003857	
280.950256	0.003791	
282.549927	0.004108	
284.149628	0.004180	
285.749390	0.004251	
287.349182	0.004641	
288.949005	0.004592	
290.548889	0.005466	
292.148804	0.007351	
293.748749	0.010782	
295.348755	0.015112	
296.948792	0.021510	
298.548889	0.030644	
300.148987	0.041498	
301.749146	0.055886	
303.349335	0.073605	
304.949554	0.095524	
306.549835	0.120716	
308.150146	0.150997	
309.750458	0.183385	
311.350861	0.218049	
312.951233	0.255303	
314.551697	0.293122	
316.152161	0.331906	
317.752686	0.371504	
319.353210	0.411260	
320.953796	0.447780	
322.554382	0.485725	
324.155029	0.528568	
325.755676	0.559150	
327.356384	0.580794	
328.957092	0.607701	
330.557861	0.636043	
332.158630	0.661332	
333.759430	0.683202	
335.360260	0.702990	
336.961121	0.722071	
338.562012	0.737636	
340.162903	0.750537	
341.763855	0.764011	
343.364807	0.774612	
344.965759	0.783147	
346.566772	0.792266	
348.167786	0.798800	
349.768860	0.804552	
351.369904	0.811107	
352.971008	0.813922	
354.572083	0.819577	
356.173218	0.822858	
357.774353	0.827523	
359.375519	0.829617	
360.976685	0.832882	
362.577881	0.835468	
364.179108	0.837583	
365.780334	0.839364	
367.381561	0.841367	
368.982849	0.842951	
370.584106	0.844376	
372.185364	0.843476	
373.786682	0.845098	
375.388000	0.844665	
376.989319	0.844658	
378.590637	0.843183	
380.191986	0.843335	
381.793365	0.842945	
383.394714	0.843531	
384.996094	0.845056	
386.597473	0.846836	
388.198853	0.847461	
389.800232	0.848819	
391.401672	0.850049	
393.003082	0.851364	
394.604492	0.852165	
396.205902	0.853171	
397.807312	0.853289	
399.408752	0.854256	
401.010193	0.854772	
402.611633	0.854675	
404.213074	0.855737	
405.814514	0.854859	
407.415955	0.855067	
409.017395	0.856461	
410.618835	0.855401	
412.220276	0.856228	
413.821716	0.855126	
415.423157	0.855423	
417.024597	0.855837	
418.626038	0.855946	
420.227448	0.856739	
421.828918	0.855843	
423.430328	0.856987	
425.031738	0.857078	
426.633148	0.856506	
428.234558	0.856546	
429.835938	0.856729	
431.437347	0.856605	
433.038727	0.857029	
434.640076	0.857297	
436.241455	0.857930	
437.842834	0.858031	
439.444183	0.858120	
441.045502	0.858013	
442.646820	0.858724	
444.248138	0.858796	
445.849457	0.858993	
447.450745	0.859422	
449.052002	0.859811	
450.653259	0.859942	
452.254547	0.859991	
453.855774	0.860091	
455.456970	0.860929	
457.058197	0.861264	
458.659363	0.860705	
460.260559	0.861501	
461.861664	0.861581	
463.462830	0.861506	
465.063904	0.861913	
466.665039	0.862431	
468.266113	0.862361	
469.867126	0.861874	
471.468170	0.862154	
473.069183	0.862567	
474.670166	0.862902	
476.271149	0.863466	
477.872070	0.863269	
479.472992	0.863274	
481.073883	0.863010	
482.674744	0.863126	
484.275574	0.864008	
485.876404	0.863894	
487.477203	0.864043	
489.077942	0.863926	
490.678650	0.864107	
492.279388	0.864046	
493.880035	0.863648	
495.480713	0.864232	
497.081299	0.864626	
498.681885	0.864759	
500.282410	0.864386	
501.882965	0.865266	
503.483459	0.865446	
505.083893	0.865252	
506.684326	0.865562	
508.284729	0.866122	
509.885071	0.865762	
511.485352	0.866134	
513.085632	0.865905	
514.685913	0.866890	
516.286072	0.867088	
517.886292	0.866111	
519.486450	0.866937	
521.086487	0.867202	
522.686584	0.867576	
524.286560	0.867606	
525.886536	0.867599	
527.486450	0.867936	
529.086365	0.867917	
530.686218	0.868571	
532.286011	0.868500	
533.885803	0.869164	
535.485474	0.869158	
537.085144	0.868832	
538.684814	0.869430	
540.284363	0.869715	
541.883911	0.870054	
543.483398	0.869497	
545.082886	0.870055	
546.682251	0.870043	
548.281616	0.870241	
549.880920	0.870451	
551.480164	0.870711	
553.079346	0.870684	
554.678528	0.870902	
556.277649	0.870697	
557.876648	0.870856	
559.475647	0.871143	
561.074585	0.870940	
562.673462	0.870613	
564.272339	0.871507	
565.871094	0.871170	
567.469849	0.870674	
569.068481	0.871354	
570.667114	0.871464	
572.265686	0.871332	
573.864136	0.871616	
575.462646	0.871742	
577.060974	0.871730	
578.659302	0.871385	
580.257629	0.871896	
581.855835	0.871772	
583.453979	0.871848	
585.052063	0.871954	
586.650024	0.871677	
588.248047	0.871787	
589.845947	0.871935	
591.443726	0.872075	
593.041565	0.871561	
594.639282	0.871733	
596.236877	0.871524	
597.834473	0.871579	
599.432007	0.871426	
601.029419	0.871401	
602.626770	0.871430	
604.224060	0.871072	
605.821350	0.871280	
607.418518	0.870774	
609.015564	0.871044	
610.612671	0.870941	
612.209595	0.870310	
613.806519	0.870585	
615.403259	0.870230	
617.000061	0.870022	
618.596741	0.870170	
620.193298	0.870148	
621.789856	0.869953	
623.386292	0.869994	
624.982666	0.869796	
626.578979	0.868974	
628.175171	0.869432	
629.771362	0.869592	
631.367371	0.869630	
632.963379	0.869938	
634.559265	0.869353	
636.155151	0.869277	
637.750854	0.869211	
639.346558	0.869654	
640.942139	0.868915	
642.537659	0.868696	
644.133057	0.869324	
645.728394	0.868996	
647.323669	0.868960	
648.918823	0.869727	
650.513977	0.869188	
652.109009	0.869050	
653.703918	0.868928	
655.298706	0.868805	
656.893433	0.868372	
658.488159	0.867495	
660.082703	0.867688	
661.677185	0.868323	
663.271606	0.868876	
664.865906	0.868137	
666.460144	0.868702	
668.054321	0.868868	
669.648315	0.868133	
671.242310	0.868280	
672.836121	0.869007	
674.429871	0.869062	
676.023560	0.868943	
677.617126	0.868708	
679.210571	0.868308	
680.804016	0.868766	
682.397339	0.868754	
683.990479	0.868443	
685.583618	0.868328	
687.176636	0.868409	
688.769470	0.867892	
690.362305	0.868215	
691.955017	0.868238	
693.547607	0.868535	
695.140137	0.867781	
696.732544	0.868378	
698.324829	0.868635	
699.917053	0.868057	
701.509155	0.868518	
703.101196	0.868440	
704.693054	0.868511	
706.284851	0.867873	
707.876587	0.868145	
709.468140	0.868284	
711.059631	0.868483	
712.651001	0.868834	
714.242249	0.868905	
715.833374	0.868670	
717.424438	0.868382	
719.015442	0.868190	
720.606262	0.868202	
722.196960	0.867504	
723.787598	0.867415	
725.378052	0.867156	
726.968445	0.867776	
728.558716	0.868147	
730.148926	0.867159	
731.738953	0.867700	
733.328918	0.867558	
734.918762	0.866828	
736.508423	0.866594	
738.098022	0.867188	
739.687561	0.867155	
741.276917	0.867024	
742.866150	0.866445	
744.455322	0.866859	
746.044312	0.866323	
747.633179	0.866616	
749.221985	0.867001	
750.810669	0.867371	
752.399170	0.866506	
753.987610	0.866860	
755.575867	0.866356	
757.164063	0.866518	
758.752136	0.866115	
760.340027	0.865634	
761.927856	0.865990	
763.515503	0.865804	
765.103149	0.865334	
766.690552	0.865370	
768.277832	0.865600	
769.865051	0.864962	
771.452026	0.864935	
773.039001	0.865430	
774.625793	0.865387	
776.212463	0.864488	
777.799011	0.864399	
779.385376	0.863971	
780.971680	0.864202	
782.557861	0.863911	
784.143860	0.863599	
785.729736	0.863914	
787.315491	0.863225	
788.901123	0.863274	
790.486633	0.863483	
792.071960	0.863497	
793.657166	0.863701	
795.242249	0.862649	
796.827209	0.863128	
798.411987	0.861708	
799.996704	0.862113	
801.581177	0.862411	
803.165649	0.862287	
804.749878	0.861847	
806.333984	0.861509	
807.917969	0.860786	
809.501831	0.861326	
811.085510	0.860378	
812.669067	0.860973	
814.252502	0.860482	
815.835754	0.860691	
817.418884	0.860402	
819.001831	0.860701	
820.584656	0.859677	
822.167358	0.860074	
823.750000	0.859615	
825.332336	0.859859	
826.914673	0.859433	
828.496704	0.859539	
830.078735	0.859339	
831.660522	0.859805	
833.242188	0.859417	
834.823730	0.858433	
836.405090	0.858544	
837.986206	0.858434	
839.567261	0.858247	
841.148254	0.859045	
842.729004	0.857879	
844.309570	0.857318	
845.890015	0.857927	
847.470398	0.858190	
849.050476	0.857803	
850.630493	0.857648	
852.210327	0.857770	
853.790039	0.857916	
855.369507	0.856989	
856.948914	0.856352	
858.528137	0.857432	
860.107239	0.857359	
861.686035	0.856632	
863.264832	0.856786	
864.843384	0.855928	
866.421753	0.856657	
868.000000	0.856302	
869.578125	0.855658	
871.156067	0.855588	
872.733765	0.856125	
874.311401	0.855903	
875.888855	0.854711	
877.466125	0.855173	
879.043274	0.855196	
880.620239	0.854954	
882.196960	0.855039	
883.773560	0.855008	
885.349976	0.854740	
886.926270	0.854287	
888.502319	0.854732	
890.078308	0.854032	
891.654114	0.854372	
893.229675	0.854256	
894.805054	0.855039	
896.380371	0.854965	
897.955444	0.854098	
899.530396	0.854904	
901.105103	0.853449	
902.679565	0.854008	
904.254028	0.854775	
905.828247	0.853843	
907.402222	0.853517	
908.976196	0.853531	
910.549805	0.853024	
912.123352	0.853956	
913.696655	0.853745	
915.269836	0.853836	
916.842773	0.853791	
918.415649	0.854413	
919.988159	0.853053	
921.560669	0.853454	
923.132935	0.853800	
924.704956	0.852574	
926.276855	0.852911	
927.848511	0.853919	
929.420105	0.852200	
930.991394	0.852549	
932.562622	0.852262	
934.133606	0.852356	
935.704407	0.853207	
937.275024	0.854258	
938.845398	0.852613	
940.415649	0.851071	
941.985657	0.854124	
943.555481	0.853220	
945.125183	0.853868	
946.694641	0.852280	
948.263977	0.853071	
949.833008	0.853289	
951.401978	0.852695	
952.970581	0.852583	
954.539185	0.853576	
956.107544	0.855053	
957.675659	0.854058	
959.243530	0.853340	
960.811340	0.853037	
962.378906	0.853226	
963.946167	0.853389	
965.513367	0.853846	
967.080383	0.854761	
968.647156	0.853727	
970.213684	0.853257	
971.780090	0.853455	
973.346313	0.852544	
974.912231	0.853509	
976.478027	0.853719	
978.043579	0.853559	
979.609009	0.854244	
981.174133	0.853975	
982.739075	0.853565	
984.303833	0.853825	
985.868347	0.853829	
987.432739	0.853628	
988.996887	0.854772	
990.560852	0.854648	
992.124634	0.853656	
993.688171	0.853177	
995.251465	0.852605	
996.814575	0.856494	
998.377563	0.854886	
999.940247	0.854388	
1013.382019	0.852541	
1016.810181	0.852949	
1020.238159	0.853967	
1023.666199	0.852243	
1027.094238	0.853064	
1030.522217	0.853621	
1033.950073	0.854234	
1037.378174	0.852773	
1040.805908	0.854140	
1044.233887	0.853389	
1047.661865	0.855235	
1051.089722	0.855983	
1054.517578	0.855565	
1057.945557	0.856085	
1061.373413	0.858330	
1064.801392	0.857232	
1068.229248	0.862863	
1071.657227	0.859244	
1075.085205	0.866601	
1078.513184	0.861325	
1081.941162	0.867820	
1085.369263	0.865351	
1088.797241	0.868743	
1092.225342	0.867857	
1095.653564	0.870359	
1099.081787	0.870550	
1102.510010	0.870289	
1105.938232	0.869996	
1109.366577	0.872409	
1112.795044	0.873054	
1116.223389	0.871447	
1119.651978	0.873237	
1123.080566	0.872378	
1126.509155	0.874411	
1129.937866	0.872195	
1133.366699	0.875468	
1136.795654	0.872439	
1140.224487	0.874168	
1143.653564	0.870933	
1147.082764	0.874218	
1150.511963	0.873731	
1153.941162	0.877201	
1157.370605	0.872461	
1160.800049	0.875751	
1164.229736	0.873018	
1167.659424	0.876356	
1171.089233	0.872916	
1174.519165	0.876583	
1177.949219	0.874008	
1181.379395	0.878150	
1184.809814	0.872687	
1188.240112	0.877779	
1191.670654	0.874368	
1195.101318	0.880067	
1198.532227	0.874357	
1201.963135	0.878595	
1205.394287	0.873828	
1208.825562	0.879008	
1212.256958	0.874615	
1215.688477	0.879597	
1219.120239	0.874899	
1222.552124	0.881968	
1225.984131	0.875462	
1229.416260	0.880374	
1232.848755	0.875667	
1236.281250	0.881044	
1239.713989	0.875375	
1243.146851	0.878744	
1246.579956	0.877020	
1250.013306	0.882467	
1253.446655	0.876999	
1256.880371	0.882453	
1260.314209	0.878035	
1263.748291	0.880881	
1267.182495	0.876939	
1270.616943	0.882282	
1274.051514	0.877224	
1277.486450	0.883806	
1280.921631	0.877719	
1284.356812	0.882972	
1287.792358	0.878418	
1291.228149	0.885019	
1294.664063	0.878783	
1298.100342	0.886193	
1301.536743	0.880966	
1304.973389	0.888213	
1308.410400	0.879366	
1311.847534	0.886410	
1315.284912	0.879963	
1318.722534	0.888030	
1322.160522	0.879111	
1325.598755	0.888479	
1329.037109	0.881991	
1332.475830	0.889930	
1335.914795	0.879953	
1339.354004	0.888580	
1342.793579	0.882651	
1346.233276	0.888402	
1349.673462	0.884836	
1353.113770	0.889185	
1356.554443	0.888721	
1359.995361	0.885618	
1363.436523	0.892179	
1366.878052	0.879424	
1370.319824	0.889956	
1373.761963	0.882562	
1377.204346	0.891757	
1380.647217	0.876488	
1384.090210	0.880664	
1387.533569	0.876117	
1390.977295	0.883170	
1394.421265	0.877201	
1397.865601	0.886556	
1401.310303	0.877384	
1404.755249	0.890411	
1408.200562	0.877249	
1411.646240	0.894113	
1415.092285	0.883701	
1418.538574	0.893749	
1421.985352	0.884837	
1425.432373	0.894125	
1428.879761	0.886608	
1432.327515	0.894052	
1435.775635	0.886550	
1439.224243	0.894441	
1442.673096	0.885120	
1446.122314	0.894573	
1449.571899	0.885468	
1453.021851	0.897041	
1456.472290	0.887538	
1459.923096	0.897444	
1463.374268	0.887670	
1466.825684	0.898817	
1470.277588	0.886096	
1473.729980	0.896563	
1477.182739	0.887653	
1480.635864	0.897878	
1484.089355	0.886069	
1487.543335	0.898462	
1490.997681	0.880757	
1494.452393	0.897354	
1497.907715	0.883814	
1501.363281	0.897956	
1504.819336	0.883847	
1508.275879	0.895770	
1511.732788	0.884914	
1515.190186	0.897436	
1518.647949	0.880697	
1522.106201	0.890005	
1525.564819	0.883575	
1529.024048	0.892142	
1532.483643	0.883475	
1535.943604	0.886367	
1539.404053	0.885873	
1542.865112	0.889134	
1546.326538	0.887833	
1549.788330	0.883482	
1553.250732	0.886805	
1556.713623	0.887820	
1560.177002	0.888513	
1563.640869	0.885383	
1567.105103	0.888234	
1570.569946	0.885677	
1574.035156	0.890253	
1577.500977	0.889009	
1580.967163	0.889866	
1584.433960	0.887113	
1587.901245	0.888603	
1591.369019	0.888168	
1594.837402	0.888518	
1598.306152	0.888373	
1601.775513	0.890122	
1605.245361	0.887963	
1608.715698	0.888885	
1612.186768	0.887701	
1615.658081	0.890591	
1619.130127	0.886575	
1622.602661	0.889318	
1626.075684	0.886027	
1629.549194	0.888639	
1633.023438	0.889098	
1636.498169	0.890196	
1639.973389	0.890922	
1643.449219	0.889575	
1646.925537	0.891157	
1650.402588	0.889882	
1653.880127	0.892332	
1657.358032	0.890586	
1660.836670	0.889440	
1664.316040	0.890131	
1667.795654	0.890493	
1671.276123	0.886728	
1674.757080	0.888584	
1678.238647	0.890152	
1681.720947	0.890983	
1685.203491	0.892297	
1688.686890	0.890076	