SpectraSuite Datei
++++++++++++++++++++++++++++++++++++
Datum: Mon Jun 05 11:14:14 CEST 2023
Benutzer: TAM
Dark-Spektrum vorhanden: Nein
Referenz-Spektrum vorhanden: Nein
Zahl der probierten Teilspektren: 1
Spektrometer: FLMS04432
Integrationszeit (usec): 40000 (FLMS04432)
Spektren Durchschnitt berechnet: 1 (FLMS04432)
Boxcar Glättung: 0 (FLMS04432)
Dunkelstromkorrektur: Nein (FLMS04432)
Puls/Lampe aktiviert: Nein (FLMS04432)
Correct for Detector Non-linearity: Nein (FLMS04432)
Streulichtkorrektur: Nein (FLMS04432)
Anzahl Pixel in verarbeitetem Spektrum: 2048
>>>>>Begin Processed Spectral Data<<<<<
188.46	2383.53
188.85	2383.53
189.24	2383.53
189.63	2407.80
190.02	2383.53
190.41	2432.08
190.80	2368.97
191.19	2458.78
191.58	2502.47
191.96	2466.06
192.35	2524.31
192.74	2594.70
193.13	2584.99
193.52	2572.86
193.91	2614.12
194.30	2618.97
194.69	2638.39
195.08	2711.21
195.47	2682.08
195.86	2750.04
196.24	2854.41
196.63	2737.91
197.02	2793.73
197.41	2750.04
197.80	2793.73
198.19	2813.15
198.58	2788.88
198.96	2810.72
199.35	2915.09
199.74	2820.43
200.13	2815.58
200.52	2837.42
200.91	2873.83
201.29	2871.40
201.68	2844.70
202.07	2798.59
202.46	2885.97
202.85	2910.24
203.24	2830.14
203.62	2876.26
204.01	2871.40
204.40	2958.78
204.79	2902.96
205.17	2912.67
205.56	2900.53
205.95	2835.00
206.34	2917.52
206.73	2934.51
207.11	2837.42
207.50	2961.21
207.89	2881.11
208.28	2927.23
208.66	2822.86
209.05	2827.71
209.44	2774.32
209.83	2878.69
210.21	2922.38
210.60	2873.83
210.99	2871.40
211.37	2868.98
211.76	2878.69
212.15	2885.97
212.54	2866.55
212.92	2902.96
213.31	2883.54
213.70	2878.69
214.08	2856.84
214.47	2866.55
214.86	2939.37
215.24	2881.11
215.63	2844.70
216.02	2890.82
216.40	2842.28
216.79	2868.98
217.18	2859.27
217.56	2822.86
217.95	2883.54
218.33	2805.87
218.72	2844.70
219.11	2830.14
219.49	2854.41
219.88	2890.82
220.27	2803.44
220.65	2890.82
221.04	2859.27
221.42	2881.11
221.81	2844.70
222.20	2830.14
222.58	2864.12
222.97	2873.83
223.35	2854.41
223.74	2929.66
224.13	2873.83
224.51	2837.42
224.90	2847.13
225.28	2793.73
225.67	2854.41
226.05	2876.26
226.44	2861.70
226.82	2822.86
227.21	2898.10
227.59	2958.78
227.98	2837.42
228.36	2917.52
228.75	2902.96
229.14	2810.72
229.52	2844.70
229.91	2866.55
230.29	2898.10
230.68	2856.84
231.06	2859.27
231.45	2905.38
231.83	2910.24
232.21	2849.56
232.60	2808.30
232.98	2951.50
233.37	2890.82
233.75	2830.14
234.14	2805.87
234.52	2847.13
234.91	2818.00
235.29	2868.98
235.68	2878.69
236.06	2934.51
236.44	2871.40
236.83	2818.00
237.21	2907.81
237.60	2830.14
237.98	2881.11
238.37	2922.38
238.75	2885.97
239.13	2893.25
239.52	2791.31
239.90	2849.56
240.29	2803.44
240.67	2924.80
241.05	2866.55
241.44	2927.23
241.82	2883.54
242.20	2868.98
242.59	2847.13
242.97	2919.95
243.35	2966.07
243.74	2881.11
244.12	2868.98
244.51	2915.09
244.89	2844.70
245.27	2927.23
245.66	2927.23
246.04	2883.54
246.42	2861.70
246.80	2910.24
247.19	2946.65
247.57	2927.23
247.95	2900.53
248.34	2898.10
248.72	2849.56
249.10	2927.23
249.49	2878.69
249.87	2970.92
250.25	2883.54
250.63	2927.23
251.02	2888.39
251.40	2820.43
251.78	2866.55
252.16	2793.73
252.55	2786.45
252.93	2859.27
253.31	2810.72
253.69	2808.30
254.08	2849.56
254.46	2895.68
254.84	2854.41
255.22	2932.08
255.60	2890.82
255.99	2844.70
256.37	2895.68
256.75	2905.38
257.13	2992.76
257.51	2902.96
257.90	2905.38
258.28	2919.95
258.66	2919.95
259.04	2915.09
259.42	2910.24
259.81	2842.28
260.19	2917.52
260.57	2864.12
260.95	2929.66
261.33	2898.10
261.71	2835.00
262.09	2883.54
262.48	2915.09
262.86	2878.69
263.24	2864.12
263.62	2842.28
264.00	2871.40
264.38	2779.17
264.76	2883.54
265.14	2881.11
265.53	2932.08
265.91	2922.38
266.29	2856.84
266.67	2861.70
267.05	2878.69
267.43	2915.09
267.81	2944.22
268.19	2866.55
268.57	2927.23
268.95	2907.81
269.33	2944.22
269.71	2866.55
270.09	2915.09
270.47	2868.98
270.85	2927.23
271.23	2861.70
271.62	2856.84
272.00	2890.82
272.38	2873.83
272.76	2844.70
273.14	2946.65
273.52	2905.38
273.90	2932.08
274.28	2856.84
274.66	2861.70
275.04	2868.98
275.42	2881.11
275.80	2963.64
276.18	2910.24
276.55	2936.94
276.93	2878.69
277.31	2878.69
277.69	2934.51
278.07	2927.23
278.45	2936.94
278.83	2917.52
279.21	2898.10
279.59	2881.11
279.97	2830.14
280.35	2883.54
280.73	2888.39
281.11	2864.12
281.49	2912.67
281.87	2893.25
282.25	2924.80
282.62	2830.14
283.00	2929.66
283.38	2919.95
283.76	2871.40
284.14	2890.82
284.52	2912.67
284.90	2883.54
285.28	2878.69
285.65	2961.21
286.03	2878.69
286.41	2934.51
286.79	2924.80
287.17	2898.10
287.55	2924.80
287.93	2951.50
288.30	2963.64
288.68	2939.37
289.06	2961.21
289.44	2968.49
289.82	3012.18
290.20	3007.33
290.57	2990.34
290.95	3036.46
291.33	3004.90
291.71	3007.33
292.09	2922.38
292.46	3060.73
292.84	3160.24
293.22	3218.50
293.60	3242.77
293.97	3342.28
294.35	3366.56
294.73	3451.51
295.11	3495.20
295.48	3575.30
295.86	3449.08
296.24	3543.74
296.62	3577.73
296.99	3560.74
297.37	3827.73
297.75	3822.88
298.13	4162.69
298.50	4461.23
298.88	4771.92
299.26	5220.96
299.63	5737.95
300.01	6140.87
300.39	6587.48
300.77	6869.04
301.14	7301.08
301.52	7599.63
301.90	7728.28
302.27	7655.46
302.65	7747.69
303.03	7648.18
303.40	7242.83
303.78	7007.39
304.16	6364.18
304.53	5953.98
304.91	5257.36
305.28	4793.76
305.66	4369.00
306.04	4068.02
306.41	3740.35
306.79	3558.31
307.17	3407.82
307.54	3293.74
307.92	3288.89
308.29	3303.45
308.67	3291.31
309.05	3308.30
309.42	3211.22
309.80	3116.55
310.17	3152.96
310.55	3172.38
310.92	3131.12
311.30	3111.70
311.68	3007.33
312.05	2985.48
312.43	2951.50
312.80	2922.38
313.18	2902.96
313.55	2932.08
313.93	2970.92
314.30	2987.91
314.68	2851.99
315.05	2949.08
315.43	2905.38
315.80	2915.09
316.18	2951.50
316.55	2980.63
316.93	2961.21
317.30	2905.38
317.68	2929.66
318.05	2963.64
318.43	2847.13
318.80	2934.51
319.18	2832.57
319.55	2932.08
319.93	2905.38
320.30	2924.80
320.68	2890.82
321.05	2966.07
321.43	2997.62
321.80	2856.84
322.17	2876.26
322.55	2936.94
322.92	2878.69
323.30	2898.10
323.67	2861.70
324.05	2890.82
324.42	2956.36
324.79	2854.41
325.17	2922.38
325.54	2941.79
325.92	2946.65
326.29	2941.79
326.66	2895.68
327.04	2871.40
327.41	2939.37
327.78	2941.79
328.16	2808.30
328.53	2910.24
328.91	2927.23
329.28	2927.23
329.65	2871.40
330.03	2987.91
330.40	2966.07
330.77	2941.79
331.15	2868.98
331.52	2946.65
331.89	2883.54
332.27	2902.96
332.64	2944.22
333.01	2917.52
333.38	2956.36
333.76	2871.40
334.13	2939.37
334.50	2895.68
334.88	2864.12
335.25	2844.70
335.62	2898.10
335.99	2922.38
336.37	2939.37
336.74	2905.38
337.11	2949.08
337.48	2917.52
337.86	2915.09
338.23	2951.50
338.60	2895.68
338.97	2946.65
339.35	2951.50
339.72	2876.26
340.09	2963.64
340.46	2871.40
340.84	2898.10
341.21	2939.37
341.58	2910.24
341.95	2890.82
342.32	2893.25
342.70	2878.69
343.07	2839.85
343.44	2927.23
343.81	2878.69
344.18	2915.09
344.55	2898.10
344.93	2878.69
345.30	2946.65
345.67	2883.54
346.04	2866.55
346.41	2878.69
346.78	2956.36
347.15	2936.94
347.53	2885.97
347.90	2876.26
348.27	2849.56
348.64	2781.60
349.01	2868.98
349.38	2910.24
349.75	2953.93
350.12	2912.67
350.49	2936.94
350.87	2835.00
351.24	2883.54
351.61	2813.15
351.98	2934.51
352.35	2898.10
352.72	2876.26
353.09	2934.51
353.46	2936.94
353.83	2939.37
354.20	2956.36
354.57	2934.51
354.94	2890.82
355.31	2936.94
355.68	2966.07
356.05	2888.39
356.42	2847.13
356.79	2946.65
357.16	2975.77
357.53	2980.63
357.90	2975.77
358.27	2919.95
358.64	2951.50
359.01	2922.38
359.38	2856.84
359.75	2835.00
360.12	2883.54
360.49	2949.08
360.86	2861.70
361.23	2973.35
361.60	2915.09
361.97	2939.37
362.34	2868.98
362.71	2927.23
363.08	2934.51
363.45	2905.38
363.82	2946.65
364.19	2922.38
364.56	2859.27
364.93	2905.38
365.30	2924.80
365.66	2932.08
366.03	2895.68
366.40	2912.67
366.77	2895.68
367.14	2900.53
367.51	2871.40
367.88	2895.68
368.25	2953.93
368.62	2939.37
368.98	2917.52
369.35	2864.12
369.72	2871.40
370.09	2973.35
370.46	2898.10
370.83	2936.94
371.20	2929.66
371.56	2946.65
371.93	2895.68
372.30	2922.38
372.67	2898.10
373.04	2859.27
373.41	2932.08
373.77	2832.57
374.14	2895.68
374.51	2893.25
374.88	2835.00
375.25	2861.70
375.61	2956.36
375.98	3012.18
376.35	2890.82
376.72	2915.09
377.08	2927.23
377.45	2835.00
377.82	2973.35
378.19	2907.81
378.55	2822.86
378.92	2864.12
379.29	2910.24
379.66	2847.13
380.02	2985.48
380.39	2917.52
380.76	2944.22
381.13	2946.65
381.49	2915.09
381.86	2922.38
382.23	2956.36
382.59	2885.97
382.96	2888.39
383.33	2813.15
383.70	2929.66
384.06	2873.83
384.43	2944.22
384.80	2936.94
385.16	2907.81
385.53	2898.10
385.90	2905.38
386.26	2963.64
386.63	2907.81
387.00	2951.50
387.36	2893.25
387.73	2910.24
388.09	2822.86
388.46	2883.54
388.83	2866.55
389.19	2915.09
389.56	2936.94
389.93	2922.38
390.29	2924.80
390.66	2915.09
391.02	2978.20
391.39	2902.96
391.75	2929.66
392.12	2929.66
392.49	2929.66
392.85	2883.54
393.22	2978.20
393.58	2849.56
393.95	2888.39
394.31	2907.81
394.68	2866.55
395.05	2922.38
395.41	2941.79
395.78	2883.54
396.14	2830.14
396.51	2847.13
396.87	2881.11
397.24	2900.53
397.60	2900.53
397.97	2932.08
398.33	2905.38
398.70	2956.36
399.06	2936.94
399.43	2961.21
399.79	2871.40
400.16	2973.35
400.52	2936.94
400.89	2907.81
401.25	2866.55
401.62	2951.50
401.98	2949.08
402.35	2922.38
402.71	2907.81
403.07	2881.11
403.44	2861.70
403.80	2893.25
404.17	2861.70
404.53	2922.38
404.90	2898.10
405.26	2873.83
405.62	2910.24
405.99	2927.23
406.35	2900.53
406.72	2893.25
407.08	2861.70
407.44	2951.50
407.81	2883.54
408.17	2888.39
408.54	2949.08
408.90	2932.08
409.26	2953.93
409.63	2881.11
409.99	2970.92
410.35	2912.67
410.72	2871.40
411.08	2866.55
411.44	2907.81
411.81	2968.49
412.17	2876.26
412.53	2878.69
412.90	2900.53
413.26	2868.98
413.62	2898.10
413.99	2856.84
414.35	2907.81
414.71	2956.36
415.08	2912.67
415.44	2859.27
415.80	2953.93
416.16	2912.67
416.53	2907.81
416.89	2905.38
417.25	2888.39
417.61	2953.93
417.98	2915.09
418.34	2902.96
418.70	2992.76
419.06	2815.58
419.43	2881.11
419.79	2895.68
420.15	2934.51
420.51	2934.51
420.88	2905.38
421.24	2946.65
421.60	2944.22
421.96	2949.08
422.32	2885.97
422.69	2915.09
423.05	2902.96
423.41	2885.97
423.77	2907.81
424.13	2847.13
424.50	2866.55
424.86	2866.55
425.22	2881.11
425.58	2907.81
425.94	2876.26
426.30	2881.11
426.67	2866.55
427.03	2970.92
427.39	2936.94
427.75	2944.22
428.11	2980.63
428.47	2910.24
428.83	2827.71
429.19	2878.69
429.56	2866.55
429.92	2939.37
430.28	2995.19
430.64	2876.26
431.00	2830.14
431.36	2905.38
431.72	2927.23
432.08	2864.12
432.44	2885.97
432.80	2898.10
433.16	2958.78
433.52	2878.69
433.89	2905.38
434.25	2944.22
434.61	2859.27
434.97	2883.54
435.33	2883.54
435.69	2847.13
436.05	2885.97
436.41	2922.38
436.77	2973.35
437.13	2881.11
437.49	2929.66
437.85	2881.11
438.21	2934.51
438.57	2866.55
438.93	2902.96
439.29	2917.52
439.65	2868.98
440.01	2968.49
440.37	2924.80
440.73	2924.80
441.09	2907.81
441.45	2956.36
441.81	2927.23
442.16	2949.08
442.52	2885.97
442.88	2883.54
443.24	2854.41
443.60	2907.81
443.96	2932.08
444.32	2915.09
444.68	2876.26
445.04	2910.24
445.40	2868.98
445.76	2929.66
446.12	2871.40
446.48	2861.70
446.83	2888.39
447.19	2956.36
447.55	2878.69
447.91	2956.36
448.27	2946.65
448.63	2907.81
448.99	2893.25
449.34	2839.85
449.70	2849.56
450.06	2902.96
450.42	2859.27
450.78	2958.78
451.14	2888.39
451.50	2975.77
451.85	2895.68
452.21	2844.70
452.57	2907.81
452.93	2907.81
453.29	2975.77
453.64	2987.91
454.00	2934.51
454.36	2883.54
454.72	2951.50
455.08	2835.00
455.43	2864.12
455.79	2856.84
456.15	2905.38
456.51	2847.13
456.86	2910.24
457.22	2876.26
457.58	2876.26
457.94	2856.84
458.29	2963.64
458.65	2951.50
459.01	2871.40
459.37	2915.09
459.72	2968.49
460.08	2842.28
460.44	2895.68
460.79	2888.39
461.15	2919.95
461.51	2883.54
461.86	2849.56
462.22	2842.28
462.58	2868.98
462.94	2941.79
463.29	2944.22
463.65	2912.67
464.01	2873.83
464.36	2922.38
464.72	2871.40
465.08	2876.26
465.43	2924.80
465.79	2910.24
466.14	2866.55
466.50	2902.96
466.86	2929.66
467.21	2944.22
467.57	2868.98
467.93	2905.38
468.28	2953.93
468.64	3009.76
468.99	2866.55
469.35	2941.79
469.71	2885.97
470.06	2953.93
470.42	2919.95
470.77	2919.95
471.13	2832.57
471.48	2939.37
471.84	2963.64
472.20	2941.79
472.55	2907.81
472.91	2902.96
473.26	2873.83
473.62	2953.93
473.97	2895.68
474.33	2932.08
474.68	2856.84
475.04	2866.55
475.39	2890.82
475.75	2881.11
476.10	2905.38
476.46	2968.49
476.81	2983.06
477.17	2961.21
477.52	2951.50
477.88	2953.93
478.23	2975.77
478.59	2929.66
478.94	2890.82
479.30	2885.97
479.65	2919.95
480.01	2868.98
480.36	2912.67
480.72	2951.50
481.07	2866.55
481.42	2936.94
481.78	2961.21
482.13	2924.80
482.49	2885.97
482.84	2856.84
483.20	2907.81
483.55	2900.53
483.90	2788.88
484.26	2895.68
484.61	2929.66
484.96	2902.96
485.32	2907.81
485.67	2876.26
486.03	2929.66
486.38	2917.52
486.73	3017.04
487.09	2936.94
487.44	2924.80
487.79	2922.38
488.15	2922.38
488.50	2936.94
488.85	2936.94
489.21	2881.11
489.56	2915.09
489.91	2876.26
490.27	2966.07
490.62	2922.38
490.97	2917.52
491.33	2929.66
491.68	2934.51
492.03	3004.90
492.39	2924.80
492.74	2970.92
493.09	2907.81
493.44	2861.70
493.80	2878.69
494.15	2934.51
494.50	2939.37
494.85	2873.83
495.21	2888.39
495.56	2995.19
495.91	2900.53
496.26	2917.52
496.62	2929.66
496.97	2927.23
497.32	2907.81
497.67	2966.07
498.03	2893.25
498.38	2883.54
498.73	2898.10
499.08	2951.50
499.43	2912.67
499.79	2934.51
500.14	2910.24
500.49	3009.76
500.84	2885.97
501.19	2881.11
501.54	2861.70
501.90	2946.65
502.25	2895.68
502.60	2949.08
502.95	2966.07
503.30	2941.79
503.65	2878.69
504.00	2924.80
504.36	2912.67
504.71	2902.96
505.06	2953.93
505.41	2922.38
505.76	2910.24
506.11	2958.78
506.46	2953.93
506.81	2973.35
507.16	2876.26
507.52	2888.39
507.87	2936.94
508.22	2915.09
508.57	2944.22
508.92	2934.51
509.27	2868.98
509.62	2868.98
509.97	2822.86
510.32	2876.26
510.67	2924.80
511.02	2932.08
511.37	2922.38
511.72	2985.48
512.07	2934.51
512.42	2968.49
512.77	2944.22
513.12	2866.55
513.47	2917.52
513.82	2949.08
514.17	2970.92
514.52	2919.95
514.87	2881.11
515.22	2975.77
515.57	2985.48
515.92	2885.97
516.27	2868.98
516.62	2898.10
516.97	2956.36
517.32	2859.27
517.67	2929.66
518.02	2995.19
518.37	2995.19
518.72	2966.07
519.07	2922.38
519.42	2956.36
519.77	2883.54
520.12	2888.39
520.46	2956.36
520.81	2905.38
521.16	2932.08
521.51	2968.49
521.86	2980.63
522.21	2922.38
522.56	2924.80
522.91	2949.08
523.26	2912.67
523.60	2949.08
523.95	2866.55
524.30	2963.64
524.65	2995.19
525.00	2983.06
525.35	2912.67
525.70	2934.51
526.04	2953.93
526.39	2873.83
526.74	2958.78
527.09	2992.76
527.44	3026.75
527.78	2968.49
528.13	3021.89
528.48	2961.21
528.83	2939.37
529.18	2854.41
529.52	2970.92
529.87	2963.64
530.22	2949.08
530.57	3014.61
530.92	2895.68
531.26	2949.08
531.61	3007.33
531.96	2961.21
532.31	2970.92
532.65	2992.76
533.00	2932.08
533.35	2985.48
533.70	2983.06
534.04	2983.06
534.39	3007.33
534.74	2963.64
535.08	2995.19
535.43	3041.31
535.78	3060.73
536.13	2966.07
536.47	2992.76
536.82	3029.17
537.17	3031.60
537.51	2987.91
537.86	2985.48
538.21	3036.46
538.55	2963.64
538.90	3070.44
539.25	3058.30
539.59	3048.59
539.94	2995.19
540.29	2987.91
540.63	3060.73
540.98	3133.54
541.32	3109.27
541.67	3106.84
542.02	3097.14
542.36	3051.02
542.71	3063.15
543.05	3152.96
543.40	3167.52
543.75	3138.40
544.09	3118.98
544.44	3106.84
544.78	3101.99
545.13	3152.96
545.48	3201.51
545.82	3172.38
546.17	3182.09
546.51	3179.66
546.86	3208.79
547.20	3184.52
547.55	3228.21
547.89	3257.33
548.24	3349.57
548.58	3330.15
548.93	3269.47
549.28	3330.15
549.62	3470.93
549.97	3429.66
550.31	3434.52
550.66	3470.93
551.00	3410.25
551.34	3441.80
551.69	3521.90
552.03	3553.45
552.38	3645.69
552.72	3706.37
553.07	3655.40
553.41	3737.92
553.76	3720.93
554.10	3883.56
554.45	3844.72
554.79	4053.46
555.14	4070.45
555.48	4186.96
555.82	4167.54
556.17	4288.90
556.51	4320.46
556.86	4507.35
557.20	4541.33
557.54	4531.62
557.89	4723.37
558.23	4827.74
558.58	4856.87
558.92	4970.95
559.26	5136.00
559.61	5310.76
559.95	5526.78
560.29	5575.33
560.64	5716.11
560.98	5822.91
561.33	5987.96
561.67	6094.76
562.01	6400.58
562.36	6500.10
562.70	6796.22
563.04	6951.56
563.39	7286.52
563.73	7376.33
564.07	7728.28
564.41	7983.13
564.76	8371.49
565.10	8587.51
565.44	8529.26
565.79	8725.86
566.13	9104.51
566.47	9327.82
566.81	9835.10
567.16	9873.94
567.50	10378.80
567.84	10262.30
568.18	10742.89
568.53	11007.45
568.87	11221.05
569.21	11439.50
569.55	12007.47
569.90	12077.86
570.24	12587.57
570.58	13029.33
570.92	13196.81
571.27	13344.87
571.61	13789.05
571.95	14160.41
572.29	14570.62
572.63	15065.77
572.97	15247.81
573.32	15968.70
573.66	16456.57
574.00	16961.43
574.34	18141.06
574.68	18131.35
575.02	18791.55
575.37	19293.99
575.71	19842.54
576.05	20383.81
576.39	20830.42
576.73	22141.12
577.07	22303.74
577.41	22442.10
577.76	23519.78
578.10	23985.81
578.44	24825.63
578.78	25041.65
579.12	25553.80
579.46	26432.45
579.80	26874.20
580.14	27376.64
580.48	28265.00
580.82	29565.99
581.16	30500.47
581.51	31133.98
581.85	31748.07
582.19	32502.93
582.53	33337.90
582.87	33655.86
583.21	34029.66
583.55	34915.59
583.89	35442.30
584.23	35592.79
584.57	37083.10
584.91	37837.97
585.25	39022.45
585.59	39024.88
585.93	39571.00
586.27	41238.51
586.61	40299.17
586.95	40998.21
587.29	41592.88
587.63	42743.38
587.97	43180.28
588.31	43690.00
588.65	44641.47
588.99	44483.70
589.33	45893.92
589.67	46262.86
590.01	46575.97
590.34	47308.99
590.68	49364.85
591.02	50406.12
591.36	51080.89
591.70	51517.79
592.04	51549.35
592.38	52617.32
592.72	51991.10
593.06	53537.24
593.40	53988.70
593.74	53850.35
594.07	54495.99
594.41	54236.28
594.75	54377.06
595.09	54622.21
595.43	54962.02
595.77	54750.85
596.11	54425.60
596.44	54039.68
596.78	54003.27
597.12	54119.77
597.46	53396.46
597.80	52685.29
598.14	52804.22
598.47	51833.33
598.81	51503.23
599.15	52714.41
599.49	51748.38
599.83	51151.28
600.17	51107.59
600.50	50403.70
600.84	50427.97
601.18	49542.03
601.52	49427.95
601.85	48639.11
602.19	49466.79
602.53	48362.40
602.87	47660.94
603.20	47677.93
603.54	46442.47
603.88	45925.47
604.22	45226.43
604.55	43949.71
604.89	42490.95
605.23	42024.93
605.57	41755.50
605.90	41158.41
606.24	40709.37
606.58	40282.18
606.91	38859.83
607.25	38437.49
607.59	38114.67
607.92	37998.16
608.26	37483.59
608.60	37733.60
608.94	38308.85
609.27	37937.48
609.61	38345.26
609.94	39466.63
610.28	40520.05
610.62	40073.44
610.95	40937.53
611.29	41573.46
611.63	43396.31
611.96	44185.15
612.30	45898.77
612.64	46617.23
612.97	47847.83
613.31	48549.30
613.64	48726.49
613.98	49743.49
614.32	50782.34
614.65	51177.98
614.99	52714.41
615.32	54330.94
615.66	54442.59
615.99	53767.83
616.33	53779.96
616.67	54486.28
617.00	53935.30
617.34	54423.18
617.67	54187.74
618.01	52653.73
618.34	50677.97
618.68	49658.54
619.01	48971.64
619.35	47726.47
619.68	46668.20
620.02	44767.69
620.35	43787.09
620.69	42614.74
621.02	41233.65
621.36	38791.87
621.69	38032.14
622.03	36386.49
622.36	35624.34
622.70	34066.06
623.03	32723.81
623.37	31056.31
623.70	29650.95
624.04	28852.39
624.37	27582.95
624.70	26830.51
625.04	26398.47
625.37	25342.63
625.71	24388.73
626.04	23929.98
626.38	22728.51
626.71	21643.54
627.04	21022.17
627.38	20682.36
627.71	19723.61
628.05	19366.81
628.38	18983.30
628.71	18454.17
629.05	18148.34
629.38	17810.96
629.71	17461.44
630.05	17094.93
630.38	16398.31
630.72	15910.44
631.05	15742.96
631.38	15369.17
631.72	14674.99
632.05	14289.06
632.38	13597.30
632.72	13087.58
633.05	12910.40
633.38	12335.14
633.71	11854.55
634.05	11524.45
634.38	10997.74
634.71	10563.27
635.05	10160.35
635.38	9716.17
635.71	9245.29
636.04	8932.18
636.38	8376.34
636.71	8111.78
637.04	7660.31
637.38	7512.25
637.71	7123.90
638.04	6747.68
638.37	6398.16
638.70	6089.90
639.04	5912.71
639.37	5679.70
639.70	5512.22
640.03	5191.83
640.37	5099.59
640.70	4808.33
641.03	4682.11
641.36	4325.31
641.69	4320.46
642.03	4119.00
642.36	3987.93
642.69	3944.24
643.02	3815.59
643.35	3686.95
643.68	3633.55
644.02	3606.85
644.35	3555.88
644.68	3507.34
645.01	3456.36
645.34	3419.96
645.67	3402.97
646.00	3521.90
646.33	3400.54
646.67	3361.70
647.00	3259.76
647.33	3296.17
647.66	3223.35
647.99	3211.22
648.32	3182.09
648.65	3247.62
648.98	3174.81
649.31	3206.36
649.64	3145.68
649.97	3145.68
650.31	3097.14
650.64	3186.94
650.97	3118.98
651.30	3065.58
651.63	3036.46
651.96	3041.31
652.29	3026.75
652.62	3089.85
652.95	3092.28
653.28	3082.57
653.61	3060.73
653.94	2985.48
654.27	3031.60
654.60	2956.36
654.93	3029.17
655.26	3031.60
655.59	2990.34
655.92	2987.91
656.25	3034.03
656.58	3026.75
656.91	2978.20
657.24	3012.18
657.57	2980.63
657.90	2961.21
658.22	2961.21
658.55	2975.77
658.88	2958.78
659.21	3041.31
659.54	2915.09
659.87	2910.24
660.20	2995.19
660.53	2932.08
660.86	2963.64
661.19	2963.64
661.52	2927.23
661.85	2917.52
662.17	2919.95
662.50	2934.51
662.83	3007.33
663.16	2985.48
663.49	2956.36
663.82	2995.19
664.15	2905.38
664.47	2956.36
664.80	2936.94
665.13	2936.94
665.46	2883.54
665.79	2949.08
666.12	2927.23
666.44	2893.25
666.77	2927.23
667.10	2992.76
667.43	2917.52
667.76	2922.38
668.08	2900.53
668.41	2878.69
668.74	2919.95
669.07	2975.77
669.40	2939.37
669.72	2917.52
670.05	2912.67
670.38	2883.54
670.71	2898.10
671.03	2951.50
671.36	2946.65
671.69	2973.35
672.02	2827.71
672.34	2985.48
672.67	2987.91
673.00	2941.79
673.32	2963.64
673.65	2934.51
673.98	2922.38
674.31	2868.98
674.63	2832.57
674.96	2900.53
675.29	2978.20
675.61	2963.64
675.94	2888.39
676.27	2922.38
676.59	2873.83
676.92	2951.50
677.25	2910.24
677.57	2917.52
677.90	2963.64
678.23	2876.26
678.55	2890.82
678.88	2917.52
679.20	2922.38
679.53	2876.26
679.86	2900.53
680.18	2893.25
680.51	2868.98
680.83	2871.40
681.16	2934.51
681.49	2898.10
681.81	2949.08
682.14	2830.14
682.46	2825.29
682.79	2949.08
683.11	2970.92
683.44	2898.10
683.77	2815.58
684.09	2881.11
684.42	2927.23
684.74	2842.28
685.07	2873.83
685.39	2803.44
685.72	2883.54
686.04	2946.65
686.37	2951.50
686.69	2987.91
687.02	2902.96
687.34	3021.89
687.67	2839.85
687.99	2895.68
688.32	3019.46
688.64	2915.09
688.97	2934.51
689.29	2888.39
689.62	2958.78
689.94	2915.09
690.27	2890.82
690.59	2949.08
690.91	2936.94
691.24	2898.10
691.56	2847.13
691.89	2917.52
692.21	2849.56
692.54	2922.38
692.86	2907.81
693.18	2871.40
693.51	2830.14
693.83	2917.52
694.16	2881.11
694.48	2932.08
694.80	2864.12
695.13	2844.70
695.45	2864.12
695.78	2898.10
696.10	2934.51
696.42	2910.24
696.75	2861.70
697.07	2885.97
697.39	2922.38
697.72	2915.09
698.04	2907.81
698.36	2835.00
698.69	2851.99
699.01	2895.68
699.33	2924.80
699.66	2912.67
699.98	2934.51
700.30	2883.54
700.62	2861.70
700.95	2876.26
701.27	2827.71
701.59	2822.86
701.92	2900.53
702.24	2868.98
702.56	2944.22
702.88	2949.08
703.21	2912.67
703.53	2878.69
703.85	2864.12
704.17	2885.97
704.50	2898.10
704.82	2813.15
705.14	3092.28
705.46	2837.42
705.78	2987.91
706.11	2898.10
706.43	2893.25
706.75	2927.23
707.07	2808.30
707.39	2825.29
707.72	2868.98
708.04	2876.26
708.36	2902.96
708.68	2847.13
709.00	2910.24
709.32	2878.69
709.65	2871.40
709.97	2944.22
710.29	2910.24
710.61	2898.10
710.93	2917.52
711.25	2786.45
711.57	2915.09
711.90	2868.98
712.22	2888.39
712.54	2907.81
712.86	2885.97
713.18	2953.93
713.50	2951.50
713.82	2961.21
714.14	2907.81
714.46	2953.93
714.78	2895.68
715.10	2876.26
715.42	2934.51
715.75	2907.81
716.07	2929.66
716.39	2997.62
716.71	2881.11
717.03	2851.99
717.35	2902.96
717.67	2873.83
717.99	2907.81
718.31	2927.23
718.63	2859.27
718.95	2866.55
719.27	2890.82
719.59	2907.81
719.91	2859.27
720.23	2878.69
720.55	2871.40
720.87	2893.25
721.19	2898.10
721.51	2922.38
721.83	2893.25
722.15	2820.43
722.47	2866.55
722.78	3004.90
723.10	2861.70
723.42	2900.53
723.74	2854.41
724.06	2856.84
724.38	2927.23
724.70	2907.81
725.02	2825.29
725.34	2919.95
725.66	2803.44
725.98	2849.56
726.30	2922.38
726.61	2885.97
726.93	2888.39
727.25	2864.12
727.57	2951.50
727.89	2900.53
728.21	2963.64
728.53	2888.39
728.84	2905.38
729.16	2895.68
729.48	2893.25
729.80	2949.08
730.12	2902.96
730.44	2861.70
730.75	2890.82
731.07	2832.57
731.39	2941.79
731.71	2890.82
732.03	2873.83
732.34	2883.54
732.66	2912.67
732.98	2871.40
733.30	2868.98
733.62	2851.99
733.93	2837.42
734.25	2895.68
734.57	2854.41
734.89	2873.83
735.20	2883.54
735.52	2861.70
735.84	2881.11
736.16	2895.68
736.47	2881.11
736.79	2900.53
737.11	2902.96
737.42	2849.56
737.74	2915.09
738.06	2917.52
738.38	2859.27
738.69	2915.09
739.01	2859.27
739.33	2818.00
739.64	2781.60
739.96	2898.10
740.28	2900.53
740.59	2859.27
740.91	2871.40
741.23	2888.39
741.54	2898.10
741.86	2873.83
742.17	2961.21
742.49	2810.72
742.81	2839.85
743.12	2951.50
743.44	2915.09
743.76	2963.64
744.07	2844.70
744.39	2922.38
744.70	2832.57
745.02	2890.82
745.34	2915.09
745.65	2885.97
745.97	2808.30
746.28	2917.52
746.60	2878.69
746.91	2847.13
747.23	2919.95
747.55	2885.97
747.86	2932.08
748.18	2912.67
748.49	2924.80
748.81	2946.65
749.12	2978.20
749.44	2885.97
749.75	2968.49
750.07	2895.68
750.38	2839.85
750.70	2888.39
751.01	2915.09
751.33	2932.08
751.64	2851.99
751.96	2956.36
752.27	2844.70
752.59	2822.86
752.90	2900.53
753.22	2781.60
753.53	2849.56
753.84	2934.51
754.16	2873.83
754.47	2907.81
754.79	2951.50
755.10	2936.94
755.42	2847.13
755.73	2900.53
756.04	2839.85
756.36	2924.80
756.67	2912.67
756.99	2939.37
757.30	2917.52
757.61	2835.00
757.93	2866.55
758.24	2881.11
758.55	2854.41
758.87	2868.98
759.18	2769.46
759.50	2847.13
759.81	2922.38
760.12	2890.82
760.44	2815.58
760.75	2900.53
761.06	2881.11
761.38	2885.97
761.69	2844.70
762.00	2871.40
762.32	2849.56
762.63	2917.52
762.94	2905.38
763.25	2818.00
763.57	2839.85
763.88	2844.70
764.19	2878.69
764.51	2944.22
764.82	2910.24
765.13	2854.41
765.44	2847.13
765.76	2946.65
766.07	2832.57
766.38	2912.67
766.69	2910.24
767.01	2861.70
767.32	2902.96
767.63	2868.98
767.94	2885.97
768.25	2873.83
768.57	2859.27
768.88	2866.55
769.19	2907.81
769.50	2861.70
769.81	2861.70
770.13	2849.56
770.44	2944.22
770.75	2844.70
771.06	2907.81
771.37	2907.81
771.68	2878.69
772.00	2910.24
772.31	2895.68
772.62	2873.83
772.93	2898.10
773.24	2902.96
773.55	2912.67
773.86	2856.84
774.17	2895.68
774.49	2883.54
774.80	2813.15
775.11	2876.26
775.42	2808.30
775.73	2837.42
776.04	2939.37
776.35	2893.25
776.66	2871.40
776.97	2856.84
777.28	2861.70
777.59	2888.39
777.90	2827.71
778.21	2888.39
778.52	2900.53
778.83	2902.96
779.15	2839.85
779.46	2832.57
779.77	2932.08
780.08	2893.25
780.39	2876.26
780.70	2801.01
781.01	2825.29
781.32	2876.26
781.63	2861.70
781.94	2895.68
782.25	2873.83
782.56	2881.11
782.86	2910.24
783.17	2912.67
783.48	2890.82
783.79	2900.53
784.10	2898.10
784.41	2883.54
784.72	2885.97
785.03	2883.54
785.34	2990.34
785.65	2932.08
785.96	2885.97
786.27	2856.84
786.58	2944.22
786.89	2890.82
787.19	2910.24
787.50	2881.11
787.81	2915.09
788.12	2915.09
788.43	2854.41
788.74	2902.96
789.05	2941.79
789.36	2866.55
789.66	2910.24
789.97	2885.97
790.28	2856.84
790.59	2885.97
790.90	2861.70
791.21	2927.23
791.52	2851.99
791.82	2851.99
792.13	2915.09
792.44	2922.38
792.75	2835.00
793.06	2854.41
793.36	2815.58
793.67	2881.11
793.98	2871.40
794.29	2900.53
794.59	2900.53
794.90	2890.82
795.21	2907.81
795.52	2902.96
795.82	2893.25
796.13	2941.79
796.44	2917.52
796.75	2883.54
797.05	2837.42
797.36	2871.40
797.67	2900.53
797.98	2888.39
798.28	2813.15
798.59	2827.71
798.90	2888.39
799.20	2907.81
799.51	2801.01
799.82	2883.54
800.12	2963.64
800.43	2936.94
800.74	2898.10
801.04	2907.81
801.35	2944.22
801.66	2856.84
801.96	2922.38
802.27	2878.69
802.58	2898.10
802.88	2871.40
803.19	2881.11
803.50	2876.26
803.80	2932.08
804.11	2883.54
804.41	2849.56
804.72	2956.36
805.03	2963.64
805.33	2919.95
805.64	2915.09
805.94	2912.67
806.25	2898.10
806.56	2871.40
806.86	2868.98
807.17	2905.38
807.47	2958.78
807.78	2830.14
808.08	2801.01
808.39	2810.72
808.69	2871.40
809.00	2888.39
809.30	2868.98
809.61	2830.14
809.91	2893.25
810.22	2917.52
810.52	2752.47
810.83	2878.69
811.13	2839.85
811.44	2881.11
811.74	2932.08
812.05	2864.12
812.35	2839.85
812.66	2893.25
812.96	2902.96
813.27	2871.40
813.57	2861.70
813.88	2956.36
814.18	2915.09
814.49	2915.09
814.79	2820.43
815.09	2864.12
815.40	2961.21
815.70	2924.80
816.01	2856.84
816.31	2893.25
816.61	2832.57
816.92	2895.68
817.22	2915.09
817.53	2890.82
817.83	2856.84
818.13	2912.67
818.44	2890.82
818.74	2851.99
819.04	2825.29
819.35	2866.55
819.65	2866.55
819.95	2970.92
820.26	2878.69
820.56	2871.40
820.86	2910.24
821.17	2910.24
821.47	2953.93
821.77	2854.41
822.08	2893.25
822.38	2878.69
822.68	2970.92
822.99	2905.38
823.29	2881.11
823.59	2924.80
823.89	2854.41
824.20	2808.30
824.50	2876.26
824.80	2854.41
825.10	2944.22
825.41	2929.66
825.71	2847.13
826.01	2929.66
826.31	2851.99
826.62	2885.97
826.92	2907.81
827.22	2919.95
827.52	2839.85
827.82	2883.54
828.13	2900.53
828.43	2936.94
828.73	2898.10
829.03	2859.27
829.33	2808.30
829.64	2844.70
829.94	2873.83
830.24	2893.25
830.54	2835.00
830.84	2793.73
831.14	2818.00
831.45	2856.84
831.75	2905.38
832.05	2822.86
832.35	2844.70
832.65	2861.70
832.95	2866.55
833.25	2934.51
833.55	2912.67
833.85	2934.51
834.16	2917.52
834.46	2919.95
834.76	2866.55
835.06	2905.38
835.36	2832.57
835.66	2864.12
835.96	2801.01
836.26	2813.15
836.56	2900.53
836.86	2796.16
837.16	2895.68
837.46	2868.98
837.76	2883.54
838.06	2873.83
838.36	2832.57
838.66	2900.53
838.96	2873.83
839.26	2842.28
839.56	2900.53
839.86	2873.83
840.16	2839.85
840.46	2788.88
840.76	2810.72
841.06	2801.01
841.36	2905.38
841.66	2868.98
841.96	2944.22
842.26	2912.67
842.56	2888.39
842.86	2934.51
843.16	2888.39
843.46	2813.15
843.76	2890.82
844.06	2835.00
844.36	2876.26
844.66	2844.70
844.95	2864.12
845.25	2927.23
845.55	2818.00
845.85	2856.84
846.15	2885.97
846.45	2837.42
846.75	2864.12
847.05	2842.28
847.35	2871.40
847.64	2915.09
847.94	2847.13
848.24	2866.55
848.54	2849.56
848.84	2844.70
849.14	2963.64
849.43	2847.13
849.73	2861.70
850.03	2873.83
850.33	2881.11
850.63	2851.99
850.92	2910.24
851.22	2878.69
851.52	2924.80
851.82	2878.69
852.12	2893.25
852.41	2854.41
852.71	2830.14
853.01	2818.00
853.31	2864.12
853.60	2958.78
853.90	2871.40
854.20	2825.29
854.50	2910.24
854.79	2861.70
855.09	2917.52
855.39	2825.29
855.69	2847.13
855.98	2917.52
856.28	2927.23
856.58	2835.00
856.87	2851.99
857.17	2876.26
857.47	2966.07
857.76	2893.25
858.06	2900.53
858.36	2864.12
858.65	2910.24
858.95	2883.54
859.25	2798.59
859.54	2873.83
859.84	2905.38
860.14	2844.70
860.43	2842.28
860.73	2847.13
861.03	2934.51
861.32	2818.00
861.62	2900.53
861.91	2849.56
862.21	2832.57
862.51	2924.80
862.80	2881.11
863.10	2864.12
863.39	2902.96
863.69	2878.69
863.98	2881.11
864.28	2898.10
864.58	2822.86
864.87	2861.70
865.17	2859.27
865.46	2878.69
865.76	2815.58
866.05	2888.39
866.35	2912.67
866.64	2835.00
866.94	2946.65
867.23	2856.84
867.53	2864.12
867.82	2939.37
868.12	2842.28
868.41	2859.27
868.71	2832.57
869.00	2881.11
869.30	2873.83
869.59	2830.14
869.89	2883.54
870.18	2854.41
870.48	2868.98
870.77	2851.99
871.06	2883.54
871.36	2895.68
871.65	2915.09
871.95	2932.08
872.24	2946.65
872.54	2885.97
872.83	2900.53
873.12	2924.80
873.42	2895.68
873.71	2893.25
874.01	2847.13
874.30	2854.41
874.59	2919.95
874.89	2910.24
875.18	2798.59
875.47	2895.68
875.77	2881.11
876.06	2893.25
876.35	2830.14
876.65	2905.38
876.94	2876.26
877.23	2927.23
877.53	2885.97
877.82	2849.56
878.11	2958.78
878.41	2876.26
878.70	2859.27
878.99	2905.38
879.29	2849.56
879.58	2966.07
879.87	2924.80
880.16	2917.52
880.46	2934.51
880.75	2922.38
881.04	2878.69
881.34	2861.70
881.63	2854.41
881.92	2910.24
882.21	2915.09
882.50	2893.25
882.80	2956.36
883.09	2900.53
883.38	2941.79
883.67	2983.06
883.97	2847.13
884.26	2917.52
884.55	2844.70
884.84	2856.84
885.13	2915.09
885.43	2851.99
885.72	2888.39
886.01	2885.97
886.30	2818.00
886.59	2847.13
886.88	2849.56
887.17	2873.83
887.47	2827.71
887.76	2939.37
888.05	2866.55
888.34	2873.83
888.63	2873.83
888.92	2873.83
>>>>>End Processed Spectral Data<<<<<
