SpectraSuite Data File
++++++++++++++++++++++++++++++++++++
Date: Thu Aug 31 17:07:38 CEST 2023
User: TAMINATOR
Dark Spectrum Present: Yes
Reference Spectrum Present: No
Number of Sampled Component Spectra: 1
Spectrometers: FLMS04432
Integration Time (usec): 5000 (FLMS04432)
Spectra Averaged: 1 (FLMS04432)
Boxcar Smoothing: 0 (FLMS04432)
Correct for Electrical Dark: No (FLMS04432)
Strobe/Lamp Enabled: No (FLMS04432)
Correct for Detector Non-linearity: No (FLMS04432)
Correct for Stray Light: No (FLMS04432)
Number of Pixels in Processed Spectrum: 2048
>>>>>Begin Processed Spectral Data<<<<<
188.46	2371.40
188.85	2371.40
189.24	2371.40
189.63	2320.42
190.02	2208.77
190.41	2199.06
190.80	2257.32
191.19	2235.47
191.58	2140.81
191.96	2123.82
192.35	2259.74
192.74	2356.83
193.13	2160.23
193.52	2385.96
193.91	2247.61
194.30	2301.01
194.69	2208.77
195.08	2240.33
195.47	2126.25
195.86	2186.93
196.24	635.93
196.63	2182.07
197.02	2075.28
197.41	2398.10
197.80	2432.08
198.19	2487.90
198.58	2507.32
198.96	2623.83
199.35	2412.66
199.74	2473.34
200.13	2407.80
200.52	2555.87
200.91	2427.22
201.29	2546.16
201.68	2429.65
202.07	2427.22
202.46	2458.78
202.85	2509.75
203.24	2512.17
203.62	2594.70
204.01	2572.86
204.40	2633.54
204.79	2575.28
205.17	2594.70
205.56	2548.58
205.95	2402.95
206.34	2531.59
206.73	2490.33
207.11	2487.90
207.50	2507.32
207.89	2609.26
208.28	2475.77
208.66	2478.19
209.05	2628.68
209.44	2517.03
209.83	2390.81
210.21	2495.18
210.60	2378.68
210.99	2417.51
211.37	2434.50
211.76	2434.50
212.15	2402.95
212.54	2558.29
212.92	2553.44
213.31	2456.35
213.70	2541.30
214.08	2560.72
214.47	2502.47
214.86	2383.53
215.24	2485.48
215.63	2483.05
216.02	2461.20
216.40	2410.23
216.79	2269.45
217.18	2500.04
217.56	2402.95
217.95	2463.63
218.33	2325.28
218.72	2366.54
219.11	2405.38
219.49	2400.52
219.88	2570.43
220.27	2410.23
220.65	2500.04
221.04	2415.09
221.42	2419.94
221.81	2587.42
222.20	2424.79
222.58	2526.74
222.97	2531.59
223.35	2565.57
223.74	2551.01
224.13	2461.20
224.51	2592.27
224.90	2604.41
225.28	2480.62
225.67	2456.35
226.05	2536.45
226.44	2398.10
226.82	2601.98
227.21	2580.14
227.59	2495.18
227.98	2652.95
228.36	2456.35
228.75	2456.35
229.14	2614.12
229.52	2713.63
229.91	2466.06
230.29	2514.60
230.68	2412.66
231.06	2558.29
231.45	2580.14
231.83	2718.49
232.21	2592.27
232.60	2521.88
232.98	2575.28
233.37	2621.40
233.75	2524.31
234.14	2524.31
234.52	2490.33
234.91	2441.79
235.29	2368.97
235.68	2495.18
236.06	2485.48
236.44	2439.36
236.83	2589.85
237.21	2592.27
237.60	2475.77
237.98	2558.29
238.37	2475.77
238.75	2478.19
239.13	2534.02
239.52	2470.91
239.90	2492.76
240.29	2432.08
240.67	2432.08
241.05	2572.86
241.44	2551.01
241.82	2621.40
242.20	2599.55
242.59	2473.34
242.97	2577.71
243.35	2500.04
243.74	2514.60
244.12	2577.71
244.51	2597.13
244.89	2531.59
245.27	2468.48
245.66	2368.97
246.04	2517.03
246.42	2609.26
246.80	2524.31
247.19	2381.10
247.57	2519.46
247.95	2422.37
248.34	2621.40
248.72	2635.96
249.10	2631.11
249.49	2589.85
249.87	2555.87
250.25	2781.60
250.63	2628.68
251.02	2592.27
251.40	2577.71
251.78	2706.35
252.16	2580.14
252.55	2601.98
252.93	2563.15
253.31	2609.26
253.69	2716.06
254.08	2606.84
254.46	2592.27
254.84	2509.75
255.22	2466.06
255.60	2572.86
255.99	2531.59
256.37	2500.04
256.75	2453.92
257.13	2631.11
257.51	2538.87
257.90	2507.32
258.28	2589.85
258.66	2577.71
259.04	2592.27
259.42	2555.86
259.81	2582.56
260.19	2461.20
260.57	2521.88
260.95	2509.75
261.33	2512.18
261.71	2446.64
262.09	2541.30
262.48	2422.37
262.86	2526.74
263.24	2507.32
263.62	2538.87
264.00	2553.44
264.38	2517.03
264.76	2529.17
265.14	2521.88
265.53	2439.36
265.91	2466.06
266.29	2718.49
266.67	2497.61
267.05	2378.68
267.43	2614.12
267.81	2490.33
268.19	2568.00
268.57	2587.42
268.95	2490.33
269.33	2461.20
269.71	2541.30
270.09	2453.92
270.47	2449.07
270.85	2575.28
271.23	2526.74
271.62	2606.84
272.00	2563.15
272.38	2628.68
272.76	2548.58
273.14	2524.31
273.52	2614.12
273.90	2655.38
274.28	2655.38
274.66	2526.74
275.04	2538.87
275.42	2504.89
275.80	2570.43
276.18	2551.01
276.55	2432.08
276.93	2565.57
277.31	2660.24
277.69	2669.94
278.07	2599.56
278.45	2468.48
278.83	2512.17
279.21	2495.18
279.59	2466.06
279.97	2502.47
280.35	2570.43
280.73	2446.64
281.11	2495.18
281.49	2534.02
281.87	2466.06
282.25	2621.40
282.62	2500.04
283.00	2592.27
283.38	2495.18
283.76	2490.33
284.14	2534.02
284.52	2492.76
284.90	2568.00
285.28	2733.05
285.65	2560.72
286.03	2490.33
286.41	2524.31
286.79	2536.45
287.17	2507.32
287.55	2468.48
287.93	2405.38
288.30	2475.77
288.68	2643.24
289.06	2504.89
289.44	2546.16
289.82	2507.32
290.20	2601.98
290.57	2601.98
290.95	2529.17
291.33	2456.35
291.71	2679.65
292.09	2582.56
292.46	2563.15
292.84	2589.85
293.22	2485.48
293.60	2548.58
293.97	2684.51
294.35	2553.44
294.73	2538.87
295.11	2495.18
295.48	2609.26
295.86	2551.01
296.24	2485.48
296.62	2672.37
296.99	2655.38
297.37	2541.30
297.75	2429.65
298.13	2737.91
298.50	2611.69
298.88	2677.23
299.26	2594.70
299.63	2621.40
300.01	2737.91
300.39	2597.13
300.77	2495.18
301.14	2589.85
301.52	2582.56
301.90	2645.67
302.27	2541.30
302.65	2592.27
303.03	2650.53
303.40	2538.87
303.78	2580.14
304.16	2589.85
304.53	2485.48
304.91	2616.55
305.28	2618.97
305.66	2507.32
306.04	2504.89
306.41	2480.62
306.79	2570.43
307.17	2563.15
307.54	2478.19
307.92	2427.22
308.29	2604.41
308.67	2551.01
309.05	2524.31
309.42	2662.66
309.80	2500.04
310.17	2674.80
310.55	2548.58
310.92	2689.36
311.30	2694.22
311.68	2701.50
312.05	2643.25
312.43	2395.67
312.80	2568.00
313.18	2584.99
313.55	2563.15
313.93	2633.54
314.30	2548.58
314.68	2667.52
315.05	2582.56
315.43	2669.94
315.80	2526.74
316.18	2623.83
316.55	2551.01
316.93	2859.27
317.30	2611.69
317.68	2601.98
318.05	2565.57
318.43	2723.34
318.80	2662.66
319.18	2635.96
319.55	2592.27
319.93	2750.04
320.30	2580.14
320.68	2730.62
321.05	2618.97
321.43	2597.13
321.80	2716.06
322.17	2774.32
322.55	2774.31
322.92	2696.64
323.30	2657.81
323.67	2568.00
324.05	2548.58
324.42	2541.30
324.79	2614.12
325.17	2599.56
325.54	2584.99
325.92	2638.39
326.29	2638.39
326.66	2538.87
327.04	2643.24
327.41	2604.41
327.78	2461.20
328.16	2592.27
328.53	2570.43
328.91	2652.95
329.28	2485.48
329.65	2589.85
330.03	2655.38
330.40	2558.29
330.77	2599.56
331.15	2568.00
331.52	2771.89
331.89	2628.68
332.27	2478.19
332.64	2592.27
333.01	2546.16
333.38	2662.66
333.76	2757.32
334.13	2747.62
334.50	2694.22
334.88	2643.25
335.25	2713.63
335.62	2572.86
335.99	2805.87
336.37	2633.54
336.74	2407.80
337.11	2614.12
337.48	2572.86
337.86	2699.07
338.23	2628.68
338.60	2703.93
338.97	2611.69
339.35	2669.94
339.72	2796.16
340.09	2679.65
340.46	2847.13
340.84	2733.05
341.21	2684.51
341.58	2854.41
341.95	2767.03
342.32	2735.48
342.70	2720.92
343.07	2910.24
343.44	2830.14
343.81	2898.10
344.18	3031.60
344.55	3162.67
344.93	3466.07
345.30	3876.27
345.67	4599.59
346.04	5504.94
346.41	6805.93
346.78	8548.68
347.15	10407.93
347.53	12604.56
347.90	14548.77
348.27	17272.11
348.64	19755.16
349.01	21859.56
349.38	23034.34
349.75	25061.07
350.12	25121.75
350.49	26371.77
350.87	26284.39
351.24	24973.69
351.61	23755.22
351.98	22162.97
352.35	20243.03
352.72	17900.76
353.09	15335.19
353.46	12922.53
353.83	11451.63
354.20	9534.13
354.57	8153.04
354.94	6774.38
355.31	5815.62
355.68	4987.94
356.05	4271.91
356.42	3796.18
356.79	3451.51
357.16	3184.52
357.53	2956.36
357.90	2922.38
358.27	2767.03
358.64	2725.77
359.01	2728.20
359.38	2764.61
359.75	2805.87
360.12	2645.67
360.49	2628.68
360.86	2665.09
361.23	2672.37
361.60	2601.98
361.97	2628.68
362.34	2470.91
362.71	2764.61
363.08	2716.06
363.45	2640.82
363.82	2737.91
364.19	2517.03
364.56	2689.36
364.93	2672.37
365.30	2514.60
365.66	2568.00
366.03	2723.34
366.40	2669.94
366.77	2633.54
367.14	2563.15
367.51	2633.54
367.88	2604.41
368.25	2519.46
368.62	2529.17
368.98	2665.09
369.35	2667.52
369.72	2526.74
370.09	2512.18
370.46	2720.92
370.83	2643.24
371.20	2529.17
371.56	2568.00
371.93	2677.23
372.30	2694.22
372.67	2640.82
373.04	2478.19
373.41	2546.16
373.77	2616.55
374.14	2536.45
374.51	2708.78
374.88	2492.76
375.25	2548.58
375.61	2478.19
375.98	2412.66
376.35	2703.93
376.72	2449.07
377.08	2609.26
377.45	2604.41
377.82	2468.48
378.19	2623.83
378.55	2514.60
378.92	2524.31
379.29	2657.81
379.66	2575.28
380.02	2679.65
380.39	2669.94
380.76	2703.93
381.13	2577.71
381.49	2657.81
381.86	2655.38
382.23	2713.63
382.59	2614.12
382.96	2551.01
383.33	2512.18
383.70	2701.50
384.06	2648.10
384.43	2718.49
384.80	2538.87
385.16	2686.93
385.53	2682.08
385.90	2616.55
386.26	2592.27
386.63	2570.43
387.00	2711.21
387.36	2699.07
387.73	2560.72
388.09	2699.07
388.46	2633.54
388.83	2551.01
389.19	2597.13
389.56	2584.99
389.93	2524.31
390.29	2679.65
390.66	2606.84
391.02	2652.95
391.39	2531.59
391.75	2626.25
392.12	2689.36
392.49	2623.83
392.85	2584.99
393.22	2752.47
393.58	2551.01
393.95	2679.65
394.31	2691.79
394.68	2490.33
395.05	2555.86
395.41	2534.02
395.78	2543.73
396.14	2589.85
396.51	2677.23
396.87	2451.49
397.24	2665.09
397.60	2461.20
397.97	2638.39
398.33	2558.29
398.70	2502.47
399.06	2604.41
399.43	2555.87
399.79	2621.40
400.16	2614.12
400.52	2655.38
400.89	2614.12
401.25	2568.00
401.62	2694.22
401.98	2691.79
402.35	2691.79
402.71	2662.66
403.07	2594.70
403.44	2565.57
403.80	2771.89
404.17	2762.18
404.53	2541.30
404.90	2597.13
405.26	2672.37
405.62	2483.05
405.99	2492.76
406.35	2718.49
406.72	2599.55
407.08	2684.51
407.44	2677.23
407.81	2526.74
408.17	2466.06
408.54	2667.52
408.90	2716.06
409.26	2662.66
409.63	2757.32
409.99	2635.96
410.35	2594.70
410.72	2531.59
411.08	2446.64
411.44	2568.00
411.81	2531.59
412.17	2599.56
412.53	2500.04
412.90	2534.02
413.26	2716.06
413.62	2500.04
413.99	2589.85
414.35	2720.92
414.71	2582.56
415.08	2458.78
415.44	2628.68
415.80	2548.58
416.16	2606.84
416.53	2631.11
416.89	2635.96
417.25	2643.24
417.61	2434.50
417.98	2716.06
418.34	2519.46
418.70	2648.10
419.06	2635.96
419.43	2652.95
419.79	2611.69
420.15	2609.26
420.51	2660.24
420.88	2662.66
421.24	2534.02
421.60	2737.91
421.96	2711.21
422.32	2694.22
422.69	2684.51
423.05	2699.07
423.41	2645.67
423.77	2529.17
424.13	2599.56
424.50	2551.01
424.86	2495.18
425.22	2657.81
425.58	2628.68
425.94	2643.24
426.30	2623.83
426.67	2606.84
427.03	2667.52
427.39	2662.66
427.75	2822.86
428.11	2745.19
428.47	2609.26
428.83	2827.71
429.19	2686.94
429.56	2534.02
429.92	2592.27
430.28	2665.09
430.64	2568.00
431.00	2686.93
431.36	2669.94
431.72	2708.78
432.08	2633.54
432.44	2672.37
432.80	2461.20
433.16	2844.70
433.52	2728.20
433.89	2701.50
434.25	2475.77
434.61	2589.85
434.97	2737.91
435.33	2669.94
435.69	2667.52
436.05	2752.47
436.41	2577.71
436.77	2640.82
437.13	2771.89
437.49	2628.68
437.85	2555.86
438.21	2691.79
438.57	2606.84
438.93	2424.79
439.29	2597.13
439.65	2470.91
440.01	2635.96
440.37	2429.65
440.73	2480.62
441.09	2711.21
441.45	2614.12
441.81	2657.81
442.16	2543.73
442.52	2618.97
442.88	2541.30
443.24	2601.98
443.60	2597.13
443.96	2509.75
444.32	2626.25
444.68	2623.83
445.04	2563.15
445.40	2575.28
445.76	2628.68
446.12	2614.12
446.48	2623.83
446.83	2621.40
447.19	2754.90
447.55	2640.82
447.91	2711.21
448.27	2599.56
448.63	2611.69
448.99	2735.48
449.34	2660.24
449.70	2725.77
450.06	2609.26
450.42	2660.24
450.78	2674.80
451.14	2689.36
451.50	2735.48
451.85	2478.19
452.21	2694.22
452.57	2633.54
452.93	2781.60
453.29	2657.81
453.64	2568.00
454.00	2740.33
454.36	2611.69
454.72	2546.16
455.08	2718.49
455.43	2531.59
455.79	2502.47
456.15	2553.44
456.51	2601.98
456.86	2645.67
457.22	2686.94
457.58	2580.14
457.94	2665.09
458.29	2592.27
458.65	2784.02
459.01	2570.43
459.37	2497.61
459.72	2662.66
460.08	2606.84
460.44	2587.42
460.79	2667.52
461.15	2560.72
461.51	2648.10
461.86	2521.88
462.22	2696.64
462.58	2677.23
462.94	2589.85
463.29	2531.59
463.65	2665.09
464.01	2514.60
464.36	2575.28
464.72	2662.66
465.08	2735.48
465.43	2633.54
465.79	2534.02
466.14	2740.33
466.50	2480.62
466.86	2521.88
467.21	2589.85
467.57	2461.20
467.93	2638.39
468.28	2599.56
468.64	2514.60
468.99	2580.14
469.35	2720.92
469.71	2587.42
470.06	2733.05
470.42	2582.56
470.77	2519.46
471.13	2674.80
471.48	2672.37
471.84	2691.79
472.20	2514.60
472.55	2521.88
472.91	2711.21
473.26	2650.53
473.62	2754.90
473.97	2689.36
474.33	2672.37
474.68	2575.28
475.04	2669.94
475.39	2582.56
475.75	2669.94
476.10	2635.96
476.46	2606.84
476.81	2699.07
477.17	2669.94
477.52	2645.67
477.88	2735.48
478.23	2614.12
478.59	2611.69
478.94	2718.49
479.30	2555.86
479.65	2468.48
480.01	2626.25
480.36	2577.71
480.72	2553.44
481.07	2553.44
481.42	2626.25
481.78	2618.97
482.13	2555.86
482.49	2650.53
482.84	2543.73
483.20	2618.97
483.55	2429.65
483.90	2635.96
484.26	2538.87
484.61	2543.73
484.96	2616.55
485.32	2757.32
485.67	2483.05
486.03	2599.56
486.38	2538.87
486.73	2512.17
487.09	2650.53
487.44	2614.12
487.79	2694.22
488.15	2706.35
488.50	2691.79
488.85	2509.75
489.21	2640.82
489.56	2521.88
489.91	2492.76
490.27	2703.93
490.62	2492.76
490.97	2728.20
491.33	2628.68
491.68	2674.80
492.03	2740.33
492.39	2643.24
492.74	2543.73
493.09	2529.17
493.44	2657.81
493.80	2643.25
494.15	2713.63
494.50	2553.44
494.85	2599.56
495.21	2580.14
495.56	2517.03
495.91	2628.68
496.26	2572.86
496.62	2582.56
496.97	2594.70
497.32	2597.13
497.67	2492.76
498.03	2655.38
498.38	2650.53
498.73	2555.86
499.08	2798.59
499.43	2623.83
499.79	2618.97
500.14	2592.27
500.49	2635.96
500.84	2711.21
501.19	2470.91
501.54	2623.83
501.90	2650.53
502.25	2580.14
502.60	2674.80
502.95	2696.64
503.30	2517.03
503.65	2694.22
504.00	2580.14
504.36	2648.10
504.71	2708.78
505.06	2577.71
505.41	2759.75
505.76	2682.08
506.11	2509.75
506.46	2665.09
506.81	2662.66
507.16	2517.03
507.52	2606.84
507.87	2648.10
508.22	2599.56
508.57	2723.34
508.92	2606.84
509.27	2512.17
509.62	2575.28
509.97	2517.03
510.32	2560.72
510.67	2657.81
511.02	2684.51
511.37	2446.64
511.72	2490.33
512.07	2786.45
512.42	2635.96
512.77	2575.28
513.12	2587.42
513.47	2735.48
513.82	2640.82
514.17	2648.10
514.52	2446.64
514.87	2784.02
515.22	2708.78
515.57	2635.96
515.92	2655.38
516.27	2669.94
516.62	2638.39
516.97	2645.67
517.32	2667.52
517.67	2740.33
518.02	2640.82
518.37	2514.60
518.72	2560.72
519.07	2711.21
519.42	2580.14
519.77	2606.84
520.12	2529.17
520.46	2711.21
520.81	2655.38
521.16	2652.95
521.51	2584.99
521.86	2779.17
522.21	2725.77
522.56	2648.10
522.91	2628.68
523.26	2665.09
523.60	2682.08
523.95	2592.27
524.30	2565.57
524.65	2660.24
525.00	2628.68
525.35	2898.10
525.70	2597.13
526.04	2487.90
526.39	2757.32
526.74	2575.28
527.09	2720.92
527.44	2725.77
527.78	2594.70
528.13	2640.82
528.48	2543.73
528.83	2701.50
529.18	2587.42
529.52	2759.75
529.87	2529.17
530.22	2568.00
530.57	2616.55
530.92	2594.70
531.26	2597.13
531.61	2618.97
531.96	2716.06
532.31	2706.35
532.65	2580.14
533.00	2725.77
533.35	2529.17
533.70	2582.56
534.04	2568.00
534.39	2623.83
534.74	2708.78
535.08	2604.41
535.43	2713.63
535.78	2764.61
536.13	2667.52
536.47	2674.80
536.82	2616.55
537.17	2691.79
537.51	2706.35
537.86	2718.49
538.21	2754.90
538.55	2735.48
538.90	2679.65
539.25	2682.08
539.59	2694.22
539.94	2614.12
540.29	2529.17
540.63	2592.27
540.98	2682.08
541.32	2682.08
541.67	2580.14
542.02	2696.64
542.36	2699.07
542.71	2662.66
543.05	2759.75
543.40	2618.97
543.75	2660.24
544.09	2728.20
544.44	2594.70
544.78	2669.94
545.13	2521.88
545.48	2771.89
545.82	2635.96
546.17	2422.37
546.51	2563.15
546.86	2446.64
547.20	2614.12
547.55	2604.41
547.89	2623.83
548.24	2635.96
548.58	2611.69
548.93	2720.92
549.28	2628.68
549.62	2577.71
549.97	2531.59
550.31	2757.32
550.66	2776.74
551.00	2750.04
551.34	2784.02
551.69	2604.41
552.03	2587.42
552.38	2679.65
552.72	2560.72
553.07	2740.33
553.41	2694.22
553.76	2599.56
554.10	2645.67
554.45	2577.71
554.79	2798.59
555.14	2560.72
555.48	2638.39
555.82	2716.06
556.17	2779.17
556.51	2737.91
556.86	2730.62
557.20	2694.22
557.54	2587.42
557.89	2604.41
558.23	2665.09
558.58	2873.83
558.92	2691.79
559.26	2589.85
559.61	2754.90
559.95	2784.02
560.29	2592.27
560.64	2599.56
560.98	2626.25
561.33	2655.38
561.67	2648.10
562.01	2728.20
562.36	2587.42
562.70	2769.46
563.04	2716.06
563.39	2679.65
563.73	2611.69
564.07	2784.02
564.41	2592.27
564.76	2609.26
565.10	2665.09
565.44	2703.93
565.79	2737.91
566.13	2616.55
566.47	2679.65
566.81	2551.01
567.16	2701.50
567.50	2553.44
567.84	2779.17
568.18	2660.24
568.53	2580.14
568.87	2645.67
569.21	2757.32
569.55	2723.34
569.90	2708.78
570.24	2689.36
570.58	2628.68
570.92	2606.84
571.27	2657.81
571.61	2771.89
571.95	2737.91
572.29	2691.79
572.63	2614.12
572.97	2791.31
573.32	2808.30
573.66	2679.65
574.00	2733.05
574.34	2682.08
574.68	2526.74
575.02	2728.20
575.37	2645.67
575.71	2604.41
576.05	2740.33
576.39	2754.90
576.73	2757.32
577.07	2716.06
577.41	2907.81
577.76	2767.03
578.10	2793.73
578.44	2742.76
578.78	2779.17
579.12	2764.61
579.46	2752.47
579.80	2767.03
580.14	2701.50
580.48	2723.34
580.82	2679.65
581.16	2822.86
581.51	2757.32
581.85	2655.38
582.19	2881.11
582.53	2558.29
582.87	2531.59
583.21	2587.42
583.55	2716.06
583.89	2856.84
584.23	2827.71
584.57	2645.67
584.91	2764.61
585.25	2601.98
585.59	2635.96
585.93	2563.15
586.27	2657.81
586.61	2708.78
586.95	2708.78
587.29	2764.61
587.63	2786.45
587.97	2825.29
588.31	2660.24
588.65	2830.14
588.99	2742.76
589.33	2733.05
589.67	2767.03
590.01	2568.00
590.34	2832.57
590.68	2793.73
591.02	2750.04
591.36	2844.70
591.70	2769.46
592.04	2798.59
592.38	2708.78
592.72	2881.11
593.06	2747.62
593.40	2779.17
593.74	2769.46
594.07	2830.14
594.41	2835.00
594.75	2873.83
595.09	2718.49
595.43	2767.03
595.77	2750.04
596.11	2703.93
596.44	2742.76
596.78	2703.93
597.12	2781.60
597.46	2815.58
597.80	2774.32
598.14	2784.02
598.47	2885.97
598.81	2847.13
599.15	2820.43
599.49	2941.79
599.83	2718.49
600.17	2742.76
600.50	2929.66
600.84	2881.11
601.18	2922.38
601.52	2849.56
601.85	2866.55
602.19	2788.88
602.53	2859.27
602.87	2572.86
603.20	2953.93
603.54	2849.56
603.88	2791.31
604.22	2871.40
604.55	2835.00
604.89	2733.05
605.23	2876.26
605.57	2983.06
605.90	2915.09
606.24	2801.01
606.58	2944.22
606.91	2983.06
607.25	3012.18
607.59	2718.49
607.92	2793.73
608.26	2919.95
608.60	2985.48
608.94	2876.26
609.27	2912.67
609.61	3046.16
609.94	3174.81
610.28	3099.56
610.62	2893.25
610.95	3019.46
611.29	3121.41
611.63	3111.70
611.96	3208.79
612.30	3077.72
612.64	3223.35
612.97	3201.51
613.31	3337.43
613.64	3240.34
613.98	3242.77
614.32	3310.73
614.65	3385.98
614.99	3458.79
615.32	3354.42
615.66	3373.84
615.99	3451.51
616.33	3529.18
616.67	3633.55
617.00	3521.90
617.34	3546.17
617.67	3716.08
618.01	3716.08
618.34	3728.21
618.68	3745.20
619.01	3742.78
619.35	3849.57
619.68	3791.32
620.02	3868.99
620.35	3832.58
620.69	3900.55
621.02	4080.16
621.36	3929.67
621.69	3890.84
622.03	4184.53
622.36	4070.45
622.70	4150.55
623.03	4177.25
623.37	4041.32
623.70	4145.70
624.04	4182.10
624.37	4182.10
624.70	4250.07
625.04	4320.46
625.37	4412.69
625.71	4186.96
626.04	4344.73
626.38	4361.72
626.71	4412.69
627.04	4419.97
627.38	4495.22
627.71	4541.33
628.05	4575.31
628.38	4449.10
628.71	4480.65
629.05	4563.18
629.38	4449.10
629.71	4679.68
630.05	4652.99
630.38	4614.15
630.72	4684.54
631.05	4645.70
631.38	4737.94
631.72	4592.30
632.05	4541.33
632.38	4536.48
632.72	4745.22
633.05	4470.94
633.38	4500.07
633.71	4575.31
634.05	4633.57
634.38	4672.40
634.71	4667.55
635.05	4628.71
635.38	4602.01
635.71	4638.42
636.04	4793.76
636.38	4594.73
636.71	4577.74
637.04	4490.36
637.38	4478.22
637.71	4568.03
638.04	4538.91
638.37	4463.66
638.70	4492.79
639.04	4538.91
639.37	4439.39
639.70	4318.03
640.03	4361.72
640.37	4536.48
640.70	4483.08
641.03	4470.94
641.36	4327.74
641.69	4191.81
642.03	4393.27
642.36	4364.15
642.69	4293.76
643.02	4223.37
643.35	4466.09
643.68	4322.88
644.02	4337.45
644.35	4235.50
644.68	4427.25
645.01	4252.49
645.34	4388.42
645.67	4354.44
646.00	4230.65
646.33	4349.58
646.67	4276.77
647.00	4359.29
647.33	4230.65
647.66	4262.20
647.99	4519.49
648.32	4240.36
648.65	4466.09
648.98	4262.20
649.31	4048.61
649.64	4186.96
649.97	4286.47
650.31	4296.18
650.64	4286.47
650.97	4364.15
651.30	4337.45
651.63	4303.46
651.96	4196.67
652.29	4298.61
652.62	4342.30
652.95	4432.11
653.28	4318.03
653.61	4466.09
653.94	4339.87
654.27	4502.50
654.60	4483.08
654.93	4402.98
655.26	4529.20
655.59	4242.78
655.92	4281.62
656.25	4237.93
656.58	4512.21
656.91	4347.16
657.24	4402.98
657.57	4480.65
657.90	4395.70
658.22	4563.18
658.55	4546.19
658.88	4551.04
659.21	4730.66
659.54	4621.43
659.87	4689.39
660.20	4589.88
660.53	4592.30
660.86	4691.82
661.19	4713.67
661.52	4689.39
661.85	4764.64
662.17	4936.97
662.50	4822.89
662.83	4919.98
663.16	4820.46
663.49	4873.86
663.82	4987.94
664.15	5002.50
664.47	5165.13
664.80	5216.10
665.13	5160.27
665.46	5393.29
665.79	5424.84
666.12	5330.18
666.44	5580.18
666.77	5487.95
667.10	5521.93
667.43	5543.78
667.76	5825.33
668.08	5740.38
668.41	6119.03
668.74	6310.78
669.07	6373.89
669.40	6757.39
669.72	6900.59
670.05	7194.29
670.38	7330.21
670.71	8094.79
671.03	8407.90
671.36	8701.59
671.69	9242.86
672.02	9655.49
672.34	10332.69
672.67	11694.36
673.00	13092.44
673.32	13762.35
673.65	14803.63
673.98	16412.88
674.31	17541.54
674.63	19235.74
674.96	21750.34
675.29	23393.57
675.61	25483.41
675.94	28466.46
676.27	31590.30
676.59	33760.23
676.92	38561.28
677.25	41141.42
677.57	45243.42
677.90	49340.57
678.23	53224.13
678.55	55639.22
678.88	58449.94
679.20	60714.54
679.53	62755.83
679.86	62675.73
680.18	62697.58
680.51	62804.38
680.83	62697.58
681.16	62697.58
681.49	62719.42
681.81	62678.16
682.14	62731.56
682.46	62789.81
682.79	62775.25
683.11	62717.00
683.44	62663.60
683.77	62797.09
684.09	62704.86
684.42	62687.87
684.74	62755.83
685.07	62729.13
685.39	62750.98
685.72	62670.88
686.04	62765.54
686.37	62760.68
686.69	62639.32
687.02	62627.19
687.34	62755.83
687.67	62726.70
687.99	62792.24
688.32	62765.54
688.64	62787.38
688.97	62775.25
689.29	62576.22
689.62	62714.57
689.94	62726.70
690.27	62663.60
690.59	62755.83
690.91	62670.88
691.24	62763.11
691.56	62789.81
691.89	62806.80
692.21	62712.14
692.54	62702.43
692.86	62738.84
693.18	62632.04
693.51	62707.29
693.83	62729.13
694.16	62733.99
694.48	62760.68
694.80	62668.45
695.13	62697.58
695.45	62687.87
695.78	62748.55
696.10	62733.99
696.42	62770.39
696.75	62673.30
697.07	62658.74
697.39	62726.70
697.72	62763.11
698.04	62670.88
698.36	62719.42
698.69	62692.72
699.01	62717.00
699.33	62719.42
699.66	62697.58
699.98	62775.25
700.30	62743.69
700.62	62799.52
700.95	62726.70
701.27	62789.81
701.59	62712.14
701.92	62835.93
702.24	62704.86
702.56	62721.85
702.88	62738.84
703.21	62763.11
703.53	62663.60
703.85	62743.69
704.17	62763.11
704.50	62702.43
704.82	62719.42
705.14	60107.73
705.46	62602.92
705.78	62738.84
706.11	62690.30
706.43	62775.25
706.75	62692.72
707.07	62736.41
707.39	62721.85
707.72	62712.14
708.04	62687.87
708.36	62700.00
708.68	62726.70
709.00	62777.68
709.32	62777.68
709.65	62736.41
709.97	62843.21
710.29	62814.08
710.61	62658.74
710.93	62595.63
711.25	62755.83
711.57	62707.29
711.90	62712.14
712.22	60928.13
712.54	57784.88
712.86	54729.01
713.18	51248.37
713.50	45153.62
713.82	39721.49
714.14	36260.27
714.46	31723.79
714.78	27978.59
715.10	24779.51
715.42	22024.61
715.75	19493.02
716.07	16357.05
716.39	13597.30
716.71	12323.01
717.03	11089.98
717.35	9383.64
717.67	8342.36
717.99	7764.68
718.31	6585.05
718.63	5737.95
718.95	5434.55
719.27	5070.47
719.59	4286.47
719.91	4021.91
720.23	3699.09
720.55	3446.66
720.87	3293.74
721.19	3264.61
721.51	3109.27
721.83	2776.74
722.15	2815.58
722.47	2699.07
722.78	2776.74
723.10	2611.69
723.42	2601.98
723.74	2500.04
724.06	2529.17
724.38	2524.31
724.70	2368.97
725.02	2611.69
725.34	2342.27
725.66	2235.47
725.98	2194.21
726.30	2116.54
726.61	2111.68
726.93	1985.47
727.25	1983.04
727.57	1946.63
727.89	1810.71
728.21	1808.28
728.53	1847.12
728.84	1803.43
729.16	1648.08
729.48	1483.03
729.80	1417.50
730.12	1378.66
730.44	1310.70
730.75	1169.92
731.07	1169.92
731.39	1165.07
731.71	1072.83
732.03	995.16
732.34	949.04
732.66	1012.15
732.98	1000.02
733.30	934.48
733.62	876.23
733.93	830.11
734.25	837.39
734.57	786.42
734.89	757.29
735.20	791.27
735.52	740.30
735.84	599.52
736.16	737.88
736.47	640.79
736.79	643.21
737.11	609.23
737.42	589.82
737.74	684.48
738.06	606.81
738.38	699.04
738.69	427.19
739.01	543.70
739.33	550.98
739.64	609.23
739.96	548.55
740.28	514.57
740.59	567.97
740.91	606.81
741.23	597.10
741.54	691.76
741.86	567.97
742.17	604.38
742.49	594.67
742.81	517.00
743.12	490.30
743.44	580.11
743.76	509.72
744.07	526.71
744.39	507.29
744.70	555.83
745.02	424.76
745.34	609.23
745.65	402.92
745.97	500.01
746.28	502.44
746.60	521.85
746.91	558.26
747.23	449.04
747.55	444.18
747.86	524.28
748.18	470.88
748.49	526.71
748.81	524.28
749.12	439.33
749.44	383.50
749.75	342.24
750.07	424.76
750.38	504.86
750.70	502.43
751.01	298.55
751.33	364.08
751.64	395.64
751.96	344.67
752.27	436.90
752.59	449.04
752.90	385.93
753.22	359.23
753.53	327.68
753.84	368.94
754.16	407.77
754.47	402.92
754.79	373.79
755.10	366.51
755.42	271.85
755.73	417.48
756.04	395.64
756.36	439.33
756.67	293.69
756.99	427.19
757.30	257.29
757.61	359.23
757.93	349.52
758.24	373.79
758.55	339.81
758.87	351.95
759.18	393.21
759.50	378.65
759.81	410.20
760.12	310.68
760.44	451.46
760.75	254.86
761.06	242.72
761.38	395.64
761.69	150.49
762.00	313.11
762.32	344.67
762.63	354.37
762.94	373.79
763.25	308.26
763.57	220.88
763.88	410.20
764.19	385.93
764.51	473.31
764.82	388.36
765.13	330.10
765.44	203.89
765.76	371.36
766.07	300.98
766.38	368.94
766.69	237.87
767.01	364.08
767.32	364.08
767.63	383.50
767.94	407.77
768.25	390.78
768.57	366.51
768.88	201.46
769.19	351.95
769.50	281.56
769.81	283.98
770.13	264.57
770.44	303.40
770.75	322.82
771.06	179.61
771.37	116.51
771.68	288.84
772.00	264.57
772.31	351.95
772.62	133.50
772.93	300.98
773.24	203.89
773.55	264.57
773.86	286.41
774.17	247.58
774.49	271.85
774.80	276.70
775.11	235.44
775.42	220.88
775.73	279.13
776.04	174.76
776.35	182.04
776.66	296.12
776.97	223.30
777.28	283.99
777.59	199.03
777.90	322.82
778.21	235.44
778.52	257.29
778.83	167.48
779.15	70.39
779.46	165.05
779.77	240.30
780.08	186.90
780.39	257.29
780.70	169.91
781.01	92.23
781.32	254.86
781.63	242.72
781.94	191.75
782.25	269.42
782.56	283.98
782.86	235.44
783.17	208.74
783.48	293.69
783.79	262.14
784.10	223.30
784.41	203.89
784.72	177.19
785.03	194.18
785.34	194.18
785.65	106.80
785.96	208.74
786.27	247.58
786.58	266.99
786.89	174.76
787.19	150.49
787.50	133.50
787.81	123.79
788.12	269.42
788.43	189.32
788.74	225.73
789.05	199.03
789.36	177.19
789.66	140.78
789.97	240.30
790.28	213.60
790.59	80.10
790.90	53.40
791.21	162.62
791.52	264.57
791.82	223.30
792.13	242.72
792.44	264.57
792.75	169.91
793.06	150.49
793.36	101.94
793.67	63.11
793.98	213.60
794.29	303.40
794.59	250.00
794.90	283.99
795.21	123.79
795.52	140.78
795.82	128.64
796.13	167.48
796.44	201.46
796.75	109.22
797.05	148.06
797.36	143.21
797.67	177.19
797.98	191.75
798.28	155.34
798.59	111.65
798.90	65.53
799.20	87.38
799.51	101.94
799.82	63.11
800.12	75.24
800.43	126.22
800.74	14.56
801.04	104.37
801.35	104.37
801.66	157.77
801.96	87.38
802.27	167.48
802.58	116.51
802.88	116.51
803.19	99.52
803.50	53.40
803.80	111.65
804.11	58.25
804.41	116.51
804.72	87.38
805.03	114.08
805.33	70.39
805.64	242.72
805.94	77.67
806.25	145.63
806.56	201.46
806.86	84.95
807.17	82.53
807.47	87.38
807.78	14.56
808.08	-31.55
808.39	186.90
808.69	109.22
809.00	38.84
809.30	31.55
809.61	29.13
809.91	165.05
810.22	121.36
810.52	140.78
810.83	2.43
811.13	82.53
811.44	82.53
811.74	7.28
812.05	31.55
812.35	0.00
812.66	94.66
812.96	143.21
813.27	65.53
813.57	-41.26
813.88	-4.85
814.18	46.12
814.49	16.99
814.79	99.52
815.09	41.26
815.40	80.10
815.70	21.85
816.01	72.82
816.31	128.64
816.61	58.25
816.92	50.97
817.22	63.11
817.53	-7.28
817.83	-29.13
818.13	77.67
818.44	92.23
818.74	31.55
819.04	121.36
819.35	155.34
819.65	-38.84
819.95	109.22
820.26	106.80
820.56	-12.14
820.86	9.71
821.17	101.94
821.47	89.81
821.77	72.82
822.08	53.40
822.38	33.98
822.68	157.77
822.99	72.82
823.29	65.53
823.59	245.15
823.89	46.12
824.20	104.37
824.50	138.35
824.80	121.36
825.10	-2.43
825.41	2.43
825.71	92.23
826.01	-24.27
826.31	152.91
826.62	-16.99
826.92	-29.13
827.22	157.77
827.52	70.39
827.82	101.94
828.13	48.54
828.43	24.27
828.73	9.71
829.03	2.43
829.33	75.24
829.64	58.25
829.94	191.75
830.24	38.84
830.54	55.83
830.84	155.34
831.14	82.53
831.45	31.55
831.75	121.36
832.05	67.96
832.35	126.22
832.65	-36.41
832.95	-19.42
833.25	118.93
833.55	33.98
833.85	58.25
834.16	111.65
834.46	-33.98
834.76	123.79
835.06	123.79
835.36	-43.69
835.66	26.70
835.96	148.06
836.26	77.67
836.56	155.34
836.86	16.99
837.16	21.84
837.46	84.95
837.76	43.69
838.06	58.25
838.36	-4.85
838.66	4.85
838.96	16.99
839.26	99.52
839.56	-87.38
839.86	-12.14
840.16	65.53
840.46	67.96
840.76	60.68
841.06	145.63
841.36	-16.99
841.66	-50.97
841.96	58.25
842.26	33.98
842.56	-14.56
842.86	4.85
843.16	50.97
843.46	24.27
843.76	2.43
844.06	60.68
844.36	-41.26
844.66	-2.43
844.95	104.37
845.25	-67.96
845.55	21.84
845.85	99.52
846.15	24.27
846.45	111.65
846.75	0.00
847.05	19.42
847.35	82.53
847.64	70.39
847.94	21.84
848.24	150.49
848.54	-9.71
848.84	-7.28
849.14	177.19
849.43	4.85
849.73	118.93
850.03	-58.25
850.33	75.24
850.63	77.67
850.92	99.52
851.22	87.38
851.52	43.69
851.82	46.12
852.12	-19.42
852.41	-67.96
852.71	63.11
853.01	-75.24
853.31	55.83
853.60	53.40
853.90	-48.54
854.20	75.24
854.50	-31.55
854.79	29.13
855.09	-26.70
855.39	43.69
855.69	26.70
855.98	-14.56
856.28	63.11
856.58	21.84
856.87	-50.97
857.17	-55.83
857.47	-16.99
857.76	118.93
858.06	33.98
858.36	82.53
858.65	58.25
858.95	33.98
859.25	70.39
859.54	94.66
859.84	12.14
860.14	0.00
860.43	7.28
860.73	72.82
861.03	-2.43
861.32	9.71
861.62	19.42
861.91	-167.48
862.21	104.37
862.51	21.84
862.80	9.71
863.10	43.69
863.39	-21.84
863.69	-55.83
863.98	38.84
864.28	14.56
864.58	65.53
864.87	16.99
865.17	31.55
865.46	97.09
865.76	36.41
866.05	36.41
866.35	41.26
866.64	46.12
866.94	-145.63
867.23	21.85
867.53	2.43
867.82	2.43
868.12	-121.36
868.41	-77.67
868.71	-65.53
869.00	94.66
869.30	16.99
869.59	2.43
869.89	72.82
870.18	31.55
870.48	53.40
870.77	-16.99
871.06	19.42
871.36	-60.68
871.65	-2.43
871.95	12.14
872.24	58.25
872.54	-19.42
872.83	16.99
873.12	140.78
873.42	16.99
873.71	38.84
874.01	63.11
874.30	-26.70
874.59	55.83
874.89	31.55
875.18	9.71
875.47	-75.24
875.77	-60.68
876.06	-33.98
876.35	70.39
876.65	38.84
876.94	104.37
877.23	26.70
877.53	26.70
877.82	12.14
878.11	29.13
878.41	75.24
878.70	114.08
878.99	99.52
879.29	77.67
879.58	101.94
879.87	-46.12
880.16	-31.55
880.46	38.84
880.75	0.00
881.04	-70.39
881.34	-21.84
881.63	-46.12
881.92	24.27
882.21	0.00
882.50	140.78
882.80	87.38
883.09	31.55
883.38	7.28
883.67	-19.42
883.97	70.39
884.26	-24.27
884.55	21.84
884.84	9.71
885.13	-24.27
885.43	114.08
885.72	70.39
886.01	-2.43
886.30	-63.11
886.59	89.81
886.88	72.82
887.17	16.99
887.47	14.56
887.76	-36.41
888.05	7.28
888.34	41.26
888.63	41.26
888.92	41.26
>>>>>End Processed Spectral Data<<<<<
